# MKBOXPRO 

time[us],acc_x[mg],acc_y[mg],acc_z[mg],gyro_x[mdps],gyro_y[mdps],gyro_z[mdps],mag_x[mG],mag_y[mG],mag_z[mG],ah_qvar[LSB],acc_x[LSB],acc_y[LSB],acc_z[LSB],gyro_x[LSB],gyro_y[LSB],gyro_z[LSB],mag_x[LSB],mag_y[LSB],mag_z[LSB],new_data
203631013,-950.868,-169.092,249.368,-1540.000,-350.000,-700.000,133.500,210.000,-393.000,,-15588,-2772,4088,-22,-5,-10,89,140,-262,0x38
203636987,-950.868,-169.092,249.368,-1540.000,-350.000,-700.000,136.500,211.500,-402.000,,-15588,-2772,4088,-22,-5,-10,91,141,-268,0x20
203638705,-952.332,-168.604,248.575,-1470.000,-700.000,-630.000,136.500,211.500,-402.000,,-15612,-2764,4075,-21,-10,-9,91,141,-268,0x18
203646901,-952.332,-168.604,248.575,-1470.000,-700.000,-630.000,136.500,213.000,-397.500,,-15612,-2764,4075,-21,-10,-9,91,142,-265,0x20
203655514,-957.212,-169.519,248.331,-1470.000,-1050.000,-280.000,136.500,213.000,-397.500,,-15692,-2779,4071,-21,-15,-4,91,142,-265,0x18
203656812,-957.212,-169.519,248.331,-1470.000,-1050.000,-280.000,136.500,208.500,-396.000,,-15692,-2779,4071,-21,-15,-4,91,139,-264,0x20
203666762,-957.212,-169.519,248.331,-1470.000,-1050.000,-280.000,133.500,211.500,-391.500,,-15692,-2779,4071,-21,-15,-4,89,141,-261,0x20
203672409,-955.931,-163.541,248.209,-1890.000,-630.000,-560.000,133.500,211.500,-391.500,,-15671,-2681,4069,-27,-9,-8,89,141,-261,0x18
203676679,-955.931,-163.541,248.209,-1890.000,-630.000,-560.000,130.500,208.500,-394.500,,-15671,-2681,4069,-27,-9,-8,87,139,-263,0x20
203686625,-955.931,-163.541,248.209,-1890.000,-630.000,-560.000,130.500,208.500,-396.000,,-15671,-2681,4069,-27,-9,-8,87,139,-264,0x20
203689167,-958.981,-164.029,248.148,-2240.000,-770.000,-210.000,130.500,208.500,-396.000,,-15721,-2689,4068,-32,-11,-3,87,139,-264,0x18
203696546,-958.981,-164.029,248.148,-2240.000,-770.000,-210.000,136.500,211.500,-391.500,,-15721,-2689,4068,-32,-11,-3,91,141,-261,0x20
203706085,-958.127,-170.800,250.100,-2310.000,70.000,-630.000,136.500,211.500,-391.500,,-15707,-2800,4100,-33,1,-9,91,141,-261,0x18
203706435,-958.127,-170.800,250.100,-2310.000,70.000,-630.000,126.000,216.000,-399.000,,-15707,-2800,4100,-33,1,-9,84,144,-266,0x20
203716266,-958.127,-170.800,250.100,-2310.000,70.000,-630.000,138.000,211.500,-397.500,,-15707,-2800,4100,-33,1,-9,92,141,-265,0x20
203722841,-954.101,-171.837,248.880,-2100.000,280.000,-980.000,138.000,211.500,-397.500,,-15641,-2817,4080,-30,4,-14,92,141,-265,0x18
203726188,-954.101,-171.837,248.880,-2100.000,280.000,-980.000,127.500,210.000,-403.500,,-15641,-2817,4080,-30,4,-14,85,140,-269,0x20
203736129,-954.101,-171.837,248.880,-2100.000,280.000,-980.000,129.000,217.500,-391.500,,-15641,-2817,4080,-30,4,-14,86,145,-261,0x20
203739735,-944.219,-171.532,250.832,-1960.000,280.000,-560.000,129.000,217.500,-391.500,,-15479,-2812,4112,-28,4,-8,86,145,-261,0x18
203746040,-944.219,-171.532,250.832,-1960.000,280.000,-560.000,135.000,208.500,-402.000,,-15479,-2812,4112,-28,4,-8,90,139,-268,0x20
203755995,-944.219,-171.532,250.832,-1960.000,280.000,-560.000,135.000,213.000,-385.500,,-15479,-2812,4112,-28,4,-8,90,142,-257,0x20
203756486,-944.524,-167.628,250.832,-2450.000,630.000,560.000,135.000,213.000,-385.500,,-15484,-2748,4112,-35,9,8,90,142,-257,0x18
203765897,-944.524,-167.628,250.832,-2450.000,630.000,560.000,135.000,210.000,-391.500,,-15484,-2748,4112,-35,9,8,90,140,-261,0x20
203773272,-944.524,-167.628,250.832,-3220.000,910.000,350.000,135.000,210.000,-391.500,,-15484,-2748,4112,-46,13,5,90,140,-261,0x10
203773455,-953.247,-169.092,248.880,-3220.000,910.000,350.000,135.000,210.000,-391.500,,-15627,-2772,4080,-46,13,5,90,140,-261,0x08
203775800,-953.247,-169.092,248.880,-3220.000,910.000,350.000,129.000,211.500,-402.000,,-15627,-2772,4080,-46,13,5,86,141,-268,0x20
203785621,-953.247,-169.092,248.880,-3220.000,910.000,350.000,133.500,214.500,-399.000,,-15627,-2772,4080,-46,13,5,89,143,-266,0x20
203790166,-956.175,-172.264,243.512,-4060.000,1750.000,-140.000,133.500,214.500,-399.000,,-15675,-2824,3992,-58,25,-2,89,143,-266,0x18
203795529,-956.175,-172.264,243.512,-4060.000,1750.000,-140.000,123.000,210.000,-399.000,,-15675,-2824,3992,-58,25,-2,82,140,-266,0x20
203805486,-956.175,-172.264,243.512,-4060.000,1750.000,-140.000,136.500,211.500,-394.500,,-15675,-2824,3992,-58,25,-2,91,141,-263,0x20
203807058,-957.761,-174.887,245.037,-4200.000,2030.000,-420.000,136.500,211.500,-394.500,,-15701,-2867,4017,-60,29,-6,91,141,-263,0x18
203815394,-957.761,-174.887,245.037,-4200.000,2030.000,-420.000,136.500,205.500,-403.500,,-15701,-2867,4017,-60,29,-6,91,137,-269,0x20
203823867,-955.748,-175.192,246.684,-3990.000,2100.000,-1260.000,136.500,205.500,-403.500,,-15668,-2872,4044,-57,30,-18,91,137,-269,0x18
203825298,-955.748,-175.192,246.684,-3990.000,2100.000,-1260.000,135.000,211.500,-397.500,,-15668,-2872,4044,-57,30,-18,90,141,-265,0x20
203835244,-955.748,-175.192,246.684,-3990.000,2100.000,-1260.000,132.000,213.000,-397.500,,-15668,-2872,4044,-57,30,-18,88,142,-265,0x20
203840605,-949.648,-174.216,247.904,-3990.000,1890.000,-1820.000,132.000,213.000,-397.500,,-15568,-2856,4064,-57,27,-26,88,142,-265,0x18
203845149,-949.648,-174.216,247.904,-3990.000,1890.000,-1820.000,121.500,210.000,-391.500,,-15568,-2856,4064,-57,27,-26,81,140,-261,0x20
203855087,-949.648,-174.216,247.904,-3990.000,1890.000,-1820.000,133.500,214.500,-399.000,,-15568,-2856,4064,-57,27,-26,89,143,-266,0x20
203857493,-945.073,-174.399,246.501,-4270.000,2030.000,-1400.000,133.500,214.500,-399.000,,-15493,-2859,4041,-61,29,-20,89,143,-266,0x18
203864871,-945.073,-174.399,246.501,-4270.000,2030.000,-1400.000,135.000,214.500,-390.000,,-15493,-2859,4041,-61,29,-20,90,143,-260,0x20
203874281,-951.112,-171.532,241.011,-4200.000,1120.000,-980.000,135.000,214.500,-390.000,,-15592,-2812,3951,-60,16,-14,90,143,-260,0x18
203874902,-951.112,-171.532,241.011,-4200.000,1120.000,-980.000,133.500,207.000,-396.000,,-15592,-2812,3951,-60,16,-14,89,138,-264,0x20
203884703,-951.112,-171.532,241.011,-4200.000,1120.000,-980.000,138.000,208.500,-394.500,,-15592,-2812,3951,-60,16,-14,92,139,-263,0x20
203891142,-955.016,-170.495,238.693,-4130.000,980.000,-1330.000,138.000,208.500,-394.500,,-15656,-2795,3913,-59,14,-19,92,139,-263,0x18
203894607,-955.016,-170.495,238.693,-4130.000,980.000,-1330.000,136.500,210.000,-399.000,,-15656,-2795,3913,-59,14,-19,91,140,-266,0x20
203904551,-955.016,-170.495,238.693,-4130.000,980.000,-1330.000,135.000,198.000,-393.000,,-15656,-2795,3913,-59,14,-19,90,132,-262,0x20
203907899,-955.016,-170.495,238.693,-3430.000,1540.000,-1820.000,135.000,198.000,-393.000,,-15656,-2795,3913,-49,22,-26,90,132,-262,0x10
203908082,-956.236,-175.375,239.913,-3430.000,1540.000,-1820.000,135.000,198.000,-393.000,,-15676,-2875,3933,-49,22,-26,90,132,-262,0x08
203914510,-956.236,-175.375,239.913,-3430.000,1540.000,-1820.000,133.500,205.500,-396.000,,-15676,-2875,3933,-49,22,-26,89,137,-264,0x20
203924330,-956.236,-175.375,239.913,-3430.000,1540.000,-1820.000,135.000,207.000,-396.000,,-15676,-2875,3933,-49,22,-26,90,138,-264,0x20
203924822,-953.857,-182.024,238.083,-2870.000,2030.000,-1330.000,135.000,207.000,-396.000,,-15637,-2984,3903,-41,29,-19,90,138,-264,0x18
203934242,-953.857,-182.024,238.083,-2870.000,2030.000,-1330.000,127.500,211.500,-399.000,,-15637,-2984,3903,-41,29,-19,85,141,-266,0x20
203941637,-954.284,-187.697,240.340,-1680.000,1470.000,-1050.000,127.500,211.500,-399.000,,-15644,-3077,3940,-24,21,-15,85,141,-266,0x18
203944175,-954.284,-187.697,240.340,-1680.000,1470.000,-1050.000,130.500,208.500,-391.500,,-15644,-3077,3940,-24,21,-15,87,139,-261,0x20
203954125,-954.284,-187.697,240.340,-1680.000,1470.000,-1050.000,132.000,201.000,-396.000,,-15644,-3077,3940,-24,21,-15,88,134,-264,0x20
203958420,-960.872,-173.240,242.536,-1820.000,1260.000,-1400.000,132.000,201.000,-396.000,,-15752,-2840,3976,-26,18,-20,88,134,-264,0x18
203964037,-960.872,-173.240,242.536,-1820.000,1260.000,-1400.000,135.000,210.000,-393.000,,-15752,-2840,3976,-26,18,-20,90,140,-262,0x20
203973850,-960.872,-173.240,242.536,-1820.000,1260.000,-1400.000,133.500,205.500,-399.000,,-15752,-2840,3976,-26,18,-20,89,137,-266,0x20
203975286,-955.443,-165.981,238.632,-1820.000,1120.000,-1330.000,133.500,205.500,-399.000,,-15663,-2721,3912,-26,16,-19,89,137,-266,0x18
203983878,-955.443,-165.981,238.632,-1820.000,1120.000,-1330.000,127.500,217.500,-399.000,,-15663,-2721,3912,-26,16,-19,85,145,-266,0x20
203992083,-961.604,-174.887,226.127,-1400.000,1610.000,-1330.000,127.500,217.500,-399.000,,-15764,-2867,3707,-20,23,-19,85,145,-266,0x18
203993658,-961.604,-174.887,226.127,-1400.000,1610.000,-1330.000,133.500,210.000,-405.000,,-15764,-2867,3707,-20,23,-19,89,140,-270,0x20
204003606,-961.604,-174.887,226.127,-1400.000,1610.000,-1330.000,127.500,205.500,-397.500,,-15764,-2867,3707,-20,23,-19,85,137,-265,0x20
204008980,-964.959,-173.728,237.717,-1120.000,1820.000,-2800.000,127.500,205.500,-397.500,,-15819,-2848,3897,-16,26,-40,85,137,-265,0x18
204013532,-964.959,-173.728,237.717,-1120.000,1820.000,-2800.000,130.500,201.000,-391.500,,-15819,-2848,3897,-16,26,-40,87,134,-261,0x20
204023471,-964.959,-173.728,237.717,-1120.000,1820.000,-2800.000,139.500,207.000,-394.500,,-15819,-2848,3897,-16,26,-40,93,138,-263,0x20
204025731,-958.859,-173.301,224.541,-1050.000,490.000,-2800.000,139.500,207.000,-394.500,,-15719,-2841,3681,-15,7,-40,93,138,-263,0x18
204033389,-958.859,-173.301,224.541,-1050.000,490.000,-2800.000,132.000,210.000,-403.500,,-15719,-2841,3681,-15,7,-40,88,140,-269,0x20
204042525,-958.859,-173.301,224.541,-840.000,-1190.000,-1680.000,132.000,210.000,-403.500,,-15719,-2841,3681,-12,-17,-24,88,140,-269,0x10
204042707,-952.271,-172.203,240.828,-840.000,-1190.000,-1680.000,132.000,210.000,-403.500,,-15611,-2823,3948,-12,-17,-24,88,140,-269,0x08
204043298,-952.271,-172.203,240.828,-840.000,-1190.000,-1680.000,136.500,204.000,-390.000,,-15611,-2823,3948,-12,-17,-24,91,136,-260,0x20
204053122,-952.271,-172.203,240.828,-840.000,-1190.000,-1680.000,130.500,205.500,-399.000,,-15611,-2823,3948,-12,-17,-24,87,137,-266,0x20
204059422,-954.833,-186.416,239.303,-1540.000,-1750.000,-910.000,130.500,205.500,-399.000,,-15653,-3056,3923,-22,-25,-13,87,137,-266,0x18
204063035,-954.833,-186.416,239.303,-1540.000,-1750.000,-910.000,124.500,211.500,-393.000,,-15653,-3056,3923,-22,-25,-13,83,141,-262,0x20
204073124,-954.833,-186.416,239.303,-1540.000,-1750.000,-910.000,132.000,208.500,-399.000,,-15653,-3056,3923,-22,-25,-13,88,139,-266,0x20
204076183,-954.833,-186.416,239.303,-1820.000,-2800.000,-210.000,132.000,208.500,-399.000,,-15653,-3056,3923,-26,-40,-3,88,139,-266,0x10
204076366,-954.284,-183.976,237.473,-1820.000,-2800.000,-210.000,132.000,208.500,-399.000,,-15644,-3016,3893,-26,-40,-3,88,139,-266,0x08
204083044,-954.284,-183.976,237.473,-1820.000,-2800.000,-210.000,132.000,204.000,-400.500,,-15644,-3016,3893,-26,-40,-3,88,136,-267,0x20
204093008,-954.284,-183.976,237.473,-1680.000,-2380.000,-350.000,129.000,207.000,-394.500,,-15644,-3016,3893,-24,-34,-5,86,138,-263,0x30
204093397,-948.672,-172.264,227.347,-1680.000,-2380.000,-350.000,129.000,207.000,-394.500,,-15552,-2824,3727,-24,-34,-5,86,138,-263,0x08
204102898,-948.672,-172.264,227.347,-1680.000,-2380.000,-350.000,133.500,198.000,-403.500,,-15552,-2824,3727,-24,-34,-5,89,132,-269,0x20
204109884,-944.463,-169.031,225.212,-840.000,-1750.000,-770.000,133.500,198.000,-403.500,,-15483,-2771,3692,-12,-25,-11,89,132,-269,0x18
204112800,-944.463,-169.031,225.212,-840.000,-1750.000,-770.000,141.000,211.500,-393.000,,-15483,-2771,3692,-12,-25,-11,94,141,-262,0x20
204122741,-944.463,-169.031,225.212,-840.000,-1750.000,-770.000,133.500,214.500,-400.500,,-15483,-2771,3692,-12,-25,-11,89,143,-267,0x20
204126753,-952.393,-170.312,237.900,-140.000,-840.000,-910.000,133.500,214.500,-400.500,,-15613,-2792,3900,-2,-12,-13,89,143,-267,0x18
204132655,-952.393,-170.312,237.900,-140.000,-840.000,-910.000,130.500,202.500,-399.000,,-15613,-2792,3900,-2,-12,-13,87,135,-266,0x20
204142471,-952.393,-170.312,237.900,-140.000,-840.000,-910.000,129.000,207.000,-399.000,,-15613,-2792,3900,-2,-12,-13,86,138,-266,0x20
204143512,-959.896,-181.048,243.939,-910.000,-420.000,-1610.000,129.000,207.000,-399.000,,-15736,-2968,3999,-13,-6,-23,86,138,-266,0x18
204152375,-959.896,-181.048,243.939,-910.000,-420.000,-1610.000,141.000,208.500,-400.500,,-15736,-2968,3999,-13,-6,-23,94,139,-267,0x20
204160430,-957.456,-175.192,239.364,-1260.000,560.000,-1750.000,141.000,208.500,-400.500,,-15696,-2872,3924,-18,8,-25,94,139,-267,0x18
204162283,-957.456,-175.192,239.364,-1260.000,560.000,-1750.000,130.500,208.500,-396.000,,-15696,-2872,3924,-18,8,-25,87,139,-264,0x20
204172240,-957.456,-175.192,239.364,-1260.000,560.000,-1750.000,129.000,211.500,-400.500,,-15696,-2872,3924,-18,8,-25,86,141,-267,0x20
204177191,-953.857,-183.000,236.192,-770.000,-1540.000,-1400.000,129.000,211.500,-400.500,,-15637,-3000,3872,-11,-22,-20,86,141,-267,0x18
204182156,-953.857,-183.000,236.192,-770.000,-1540.000,-1400.000,127.500,210.000,-394.500,,-15637,-3000,3872,-11,-22,-20,85,140,-263,0x20
204191976,-953.857,-183.000,236.192,-770.000,-1540.000,-1400.000,127.500,208.500,-408.000,,-15637,-3000,3872,-11,-22,-20,85,139,-272,0x20
204194087,-956.968,-178.425,235.216,-980.000,-2240.000,-770.000,127.500,208.500,-408.000,,-15688,-2925,3856,-14,-32,-11,85,139,-272,0x18
204202004,-956.968,-178.425,235.216,-980.000,-2240.000,-770.000,133.500,204.000,-400.500,,-15688,-2925,3856,-14,-32,-11,89,136,-267,0x20
204210879,-956.968,-176.107,237.168,-1050.000,-2520.000,-1050.000,133.500,204.000,-400.500,,-15688,-2887,3888,-15,-36,-15,89,136,-267,0x18
204211906,-956.968,-176.107,237.168,-1050.000,-2520.000,-1050.000,129.000,207.000,-405.000,,-15688,-2887,3888,-15,-36,-15,86,138,-270,0x20
204221727,-956.968,-176.107,237.168,-1050.000,-2520.000,-1050.000,127.500,214.500,-400.500,,-15688,-2887,3888,-15,-36,-15,85,143,-267,0x20
204227751,-958.920,-177.449,239.608,-630.000,-1820.000,-2240.000,127.500,214.500,-400.500,,-15720,-2909,3928,-9,-26,-32,85,143,-267,0x18
204231621,-958.920,-177.449,239.608,-630.000,-1820.000,-2240.000,135.000,217.500,-393.000,,-15720,-2909,3928,-9,-26,-32,90,145,-262,0x20
204241575,-958.920,-177.449,239.608,-630.000,-1820.000,-2240.000,144.000,198.000,-403.500,,-15720,-2909,3928,-9,-26,-32,96,132,-269,0x20
204244512,-957.456,-181.597,245.220,-350.000,-1400.000,-3290.000,144.000,198.000,-403.500,,-15696,-2977,4020,-5,-20,-47,96,132,-269,0x18
204251492,-957.456,-181.597,245.220,-350.000,-1400.000,-3290.000,126.000,207.000,-408.000,,-15696,-2977,4020,-5,-20,-47,84,138,-272,0x20
204261312,-958.127,-183.976,247.599,-490.000,-2310.000,-3290.000,135.000,217.500,-405.000,,-15707,-3016,4059,-7,-33,-47,90,145,-270,0x38
204271338,-958.127,-183.976,247.599,-490.000,-2310.000,-3290.000,130.500,205.500,-397.500,,-15707,-3016,4059,-7,-33,-47,87,137,-265,0x20
204278193,-955.748,-180.072,243.085,-630.000,-3360.000,-3290.000,130.500,205.500,-397.500,,-15668,-2952,3985,-9,-48,-47,87,137,-265,0x18
204281135,-955.748,-180.072,243.085,-630.000,-3360.000,-3290.000,132.000,207.000,-406.500,,-15668,-2952,3985,-9,-48,-47,88,138,-271,0x20
204291086,-955.748,-180.072,243.085,-630.000,-3360.000,-3290.000,129.000,207.000,-411.000,,-15668,-2952,3985,-9,-48,-47,86,138,-274,0x20
204294968,-955.809,-178.669,246.196,-700.000,-3640.000,-3290.000,129.000,207.000,-411.000,,-15669,-2929,4036,-10,-52,-47,86,138,-274,0x18
204301004,-955.809,-178.669,246.196,-700.000,-3640.000,-3290.000,133.500,205.500,-399.000,,-15669,-2929,4036,-10,-52,-47,89,137,-266,0x20
204310952,-955.809,-178.669,246.196,-700.000,-3640.000,-3290.000,123.000,205.500,-408.000,,-15669,-2929,4036,-10,-52,-47,82,137,-272,0x20
204311849,-948.184,-177.449,247.111,-980.000,-3010.000,-3360.000,123.000,205.500,-408.000,,-15544,-2909,4051,-14,-43,-48,82,137,-272,0x18
204320853,-948.184,-177.449,247.111,-980.000,-3010.000,-3360.000,133.500,205.500,-402.000,,-15544,-2909,4051,-14,-43,-48,89,137,-268,0x20
204328643,-950.807,-180.316,245.952,-910.000,-3080.000,-3010.000,133.500,205.500,-402.000,,-15587,-2956,4032,-13,-44,-43,89,137,-268,0x18
204330748,-950.807,-180.316,245.952,-910.000,-3080.000,-3010.000,127.500,207.000,-405.000,,-15587,-2956,4032,-13,-44,-43,85,138,-270,0x20
204340700,-950.807,-180.316,245.952,-910.000,-3080.000,-3010.000,130.500,211.500,-402.000,,-15587,-2956,4032,-13,-44,-43,87,141,-268,0x20
204345536,-953.003,-188.063,249.368,-700.000,-3220.000,-3500.000,130.500,211.500,-402.000,,-15623,-3083,4088,-10,-46,-50,87,141,-268,0x18
204350500,-953.003,-188.063,249.368,-700.000,-3220.000,-3500.000,121.500,207.000,-412.500,,-15623,-3083,4088,-10,-46,-50,81,138,-275,0x20
204360465,-953.003,-188.063,249.368,-700.000,-3220.000,-3500.000,130.500,195.000,-414.000,,-15623,-3083,4088,-10,-46,-50,87,130,-276,0x20
204362306,-947.513,-187.209,251.564,-910.000,-2660.000,-3150.000,130.500,195.000,-414.000,,-15533,-3069,4124,-13,-38,-45,87,130,-276,0x18
204370373,-947.513,-187.209,251.564,-910.000,-2660.000,-3150.000,133.500,207.000,-409.500,,-15533,-3069,4124,-13,-38,-45,89,138,-273,0x20
204379098,-941.047,-188.612,247.172,-770.000,-1750.000,-2870.000,133.500,207.000,-409.500,,-15427,-3092,4052,-11,-25,-41,89,138,-273,0x18
204380259,-941.047,-188.612,247.172,-770.000,-1750.000,-2870.000,130.500,199.500,-406.500,,-15427,-3092,4052,-11,-25,-41,87,133,-271,0x20
204390209,-941.047,-188.612,247.172,-770.000,-1750.000,-2870.000,135.000,199.500,-403.500,,-15427,-3092,4052,-11,-25,-41,90,133,-269,0x20
204395990,-943.365,-187.453,250.039,-560.000,-1120.000,-2940.000,135.000,199.500,-403.500,,-15465,-3073,4099,-8,-16,-42,90,133,-269,0x18
204400131,-943.365,-187.453,250.039,-560.000,-1120.000,-2940.000,130.500,204.000,-417.000,,-15465,-3073,4099,-8,-16,-42,87,136,-278,0x20
204409946,-943.365,-187.453,250.039,-560.000,-1120.000,-2940.000,123.000,205.500,-405.000,,-15465,-3073,4099,-8,-16,-42,82,137,-270,0x20
204412757,-950.563,-188.612,253.577,-490.000,-840.000,-3290.000,123.000,205.500,-405.000,,-15583,-3092,4157,-7,-12,-47,82,137,-270,0x18
204419867,-950.563,-188.612,253.577,-490.000,-840.000,-3290.000,132.000,204.000,-402.000,,-15583,-3092,4157,-7,-12,-47,88,136,-268,0x20
204429682,-951.600,-189.893,254.492,-420.000,-770.000,-3220.000,132.000,204.000,-402.000,,-15600,-3113,4172,-6,-11,-46,88,136,-268,0x18
204429898,-951.600,-189.893,254.492,-420.000,-770.000,-3220.000,127.500,202.500,-405.000,,-15600,-3113,4172,-6,-11,-46,85,135,-270,0x20
204439703,-951.600,-189.893,254.492,-420.000,-770.000,-3220.000,120.000,205.500,-405.000,,-15600,-3113,4172,-6,-11,-46,80,137,-270,0x20
204446413,-951.905,-190.320,257.664,-140.000,-1050.000,-3220.000,120.000,205.500,-405.000,,-15605,-3120,4224,-2,-15,-46,80,137,-270,0x18
204449608,-951.905,-190.320,257.664,-140.000,-1050.000,-3220.000,130.500,195.000,-409.500,,-15605,-3120,4224,-2,-15,-46,87,130,-273,0x20
204459548,-951.905,-190.320,257.664,-140.000,-1050.000,-3220.000,121.500,202.500,-411.000,,-15605,-3120,4224,-2,-15,-46,81,135,-274,0x20
204463306,-952.881,-191.479,252.296,560.000,-2380.000,-2800.000,121.500,202.500,-411.000,,-15621,-3139,4136,8,-34,-40,81,135,-274,0x18
204469475,-952.881,-191.479,252.296,560.000,-2380.000,-2800.000,130.500,201.000,-408.000,,-15621,-3139,4136,8,-34,-40,87,134,-272,0x20
204479416,-952.881,-191.479,252.296,560.000,-2380.000,-2800.000,132.000,207.000,-412.500,,-15621,-3139,4136,8,-34,-40,88,138,-275,0x20
204480042,-952.881,-191.479,252.296,630.000,-2800.000,-2100.000,132.000,207.000,-412.500,,-15621,-3139,4136,9,-40,-30,88,138,-275,0x10
204480226,-945.683,-183.976,262.727,630.000,-2800.000,-2100.000,132.000,207.000,-412.500,,-15503,-3016,4307,9,-40,-30,88,138,-275,0x08
204489346,-945.683,-183.976,262.727,630.000,-2800.000,-2100.000,126.000,204.000,-408.000,,-15503,-3016,4307,9,-40,-30,84,136,-272,0x20
204496869,-945.683,-183.976,262.727,-630.000,-1890.000,-1890.000,126.000,204.000,-408.000,,-15503,-3016,4307,-9,-27,-27,84,136,-272,0x10
204497053,-939.644,-186.416,254.675,-630.000,-1890.000,-1890.000,126.000,204.000,-408.000,,-15404,-3056,4175,-9,-27,-27,84,136,-272,0x08
204499144,-939.644,-186.416,254.675,-630.000,-1890.000,-1890.000,126.000,202.500,-405.000,,-15404,-3056,4175,-9,-27,-27,84,135,-270,0x20
204509108,-939.644,-186.416,254.675,-630.000,-1890.000,-1890.000,121.500,195.000,-415.500,,-15404,-3056,4175,-9,-27,-27,81,130,-277,0x20
204513801,-948.367,-187.331,248.880,-560.000,-1890.000,-2660.000,121.500,195.000,-415.500,,-15547,-3071,4080,-8,-27,-38,81,130,-277,0x18
204519020,-948.367,-187.331,248.880,-560.000,-1890.000,-2660.000,127.500,198.000,-412.500,,-15547,-3071,4080,-8,-27,-38,85,132,-275,0x20
204528973,-948.367,-187.331,248.880,-560.000,-1890.000,-2660.000,129.000,207.000,-405.000,,-15547,-3071,4080,-8,-27,-38,86,138,-270,0x20
204530544,-951.295,-188.795,253.516,-70.000,-2940.000,-2870.000,129.000,207.000,-405.000,,-15595,-3095,4156,-1,-42,-41,86,138,-270,0x18
204538890,-951.295,-188.795,253.516,-70.000,-2940.000,-2870.000,133.500,210.000,-412.500,,-15595,-3095,4156,-1,-42,-41,89,140,-275,0x20
204547354,-951.295,-188.795,253.516,-700.000,-2660.000,-2660.000,133.500,210.000,-412.500,,-15595,-3095,4156,-10,-38,-38,89,140,-275,0x10
204547537,-944.524,-191.113,256.932,-700.000,-2660.000,-2660.000,133.500,210.000,-412.500,,-15484,-3133,4212,-10,-38,-38,89,140,-275,0x08
204548691,-944.524,-191.113,256.932,-700.000,-2660.000,-2660.000,135.000,199.500,-415.500,,-15484,-3133,4212,-10,-38,-38,90,133,-277,0x20
204558624,-944.524,-191.113,256.932,-700.000,-2660.000,-2660.000,136.500,201.000,-411.000,,-15484,-3133,4212,-10,-38,-38,91,134,-274,0x20
204564253,-941.352,-192.760,256.200,-840.000,-3780.000,-2380.000,136.500,201.000,-411.000,,-15432,-3160,4200,-12,-54,-34,91,134,-274,0x18
204568535,-941.352,-192.760,256.200,-840.000,-3780.000,-2380.000,127.500,193.500,-409.500,,-15432,-3160,4200,-12,-54,-34,85,129,-273,0x20
204578488,-941.352,-192.760,256.200,-840.000,-3780.000,-2380.000,120.000,196.500,-412.500,,-15432,-3160,4200,-12,-54,-34,80,131,-275,0x20
204581015,-941.352,-192.760,256.200,-910.000,-4480.000,-1960.000,120.000,196.500,-412.500,,-15432,-3160,4200,-13,-64,-28,80,131,-275,0x10
204581198,-938.668,-188.795,263.764,-910.000,-4480.000,-1960.000,120.000,196.500,-412.500,,-15388,-3095,4324,-13,-64,-28,80,131,-275,0x08
204588414,-938.668,-188.795,263.764,-910.000,-4480.000,-1960.000,121.500,199.500,-412.500,,-15388,-3095,4324,-13,-64,-28,81,133,-275,0x20
204597948,-940.193,-190.076,262.300,-1260.000,-4130.000,-1820.000,121.500,199.500,-412.500,,-15413,-3116,4300,-18,-59,-26,81,133,-275,0x18
204598303,-940.193,-190.076,262.300,-1260.000,-4130.000,-1820.000,123.000,204.000,-411.000,,-15413,-3116,4300,-18,-59,-26,82,136,-274,0x20
204608135,-940.193,-190.076,262.300,-1260.000,-4130.000,-1820.000,135.000,198.000,-417.000,,-15413,-3116,4300,-18,-59,-26,90,132,-278,0x20
204614712,-943.792,-194.651,264.008,-980.000,-4200.000,-1610.000,135.000,198.000,-417.000,,-15472,-3191,4328,-14,-60,-23,90,132,-278,0x18
204618041,-943.792,-194.651,264.008,-980.000,-4200.000,-1610.000,121.500,196.500,-412.500,,-15472,-3191,4328,-14,-60,-23,81,131,-275,0x20
204628006,-943.792,-194.651,264.008,-980.000,-4200.000,-1610.000,130.500,208.500,-424.500,,-15472,-3191,4328,-14,-60,-23,87,139,-283,0x20
204631609,-942.755,-195.749,265.960,-840.000,-3920.000,-1820.000,130.500,208.500,-424.500,,-15455,-3209,4360,-12,-56,-26,87,139,-283,0x18
204637915,-942.755,-195.749,265.960,-840.000,-3920.000,-1820.000,126.000,198.000,-415.500,,-15455,-3209,4360,-12,-56,-26,84,132,-277,0x20
204647879,-942.755,-195.749,265.960,-840.000,-3920.000,-1820.000,136.500,201.000,-415.500,,-15455,-3209,4360,-12,-56,-26,91,134,-277,0x20
204648373,-936.167,-198.311,263.764,-770.000,-3150.000,-2240.000,136.500,201.000,-415.500,,-15347,-3251,4324,-11,-45,-32,91,134,-277,0x18
204657777,-936.167,-198.311,263.764,-770.000,-3150.000,-2240.000,132.000,190.500,-420.000,,-15347,-3251,4324,-11,-45,-32,88,127,-280,0x20
204665160,-933.117,-196.725,262.727,-840.000,-3430.000,-1540.000,132.000,190.500,-420.000,,-15297,-3225,4307,-12,-49,-22,88,127,-280,0x18
204667693,-933.117,-196.725,262.727,-840.000,-3430.000,-1540.000,126.000,202.500,-411.000,,-15297,-3225,4307,-12,-49,-22,84,135,-274,0x20
204677524,-933.117,-196.725,262.727,-840.000,-3430.000,-1540.000,124.500,201.000,-417.000,,-15297,-3225,4307,-12,-49,-22,83,134,-278,0x20
204682077,-938.180,-196.115,262.788,-420.000,-3780.000,-1190.000,124.500,201.000,-417.000,,-15380,-3215,4308,-6,-54,-17,83,134,-278,0x18
204687434,-938.180,-196.115,262.788,-420.000,-3780.000,-1190.000,132.000,207.000,-418.500,,-15380,-3215,4308,-6,-54,-17,88,138,-279,0x20
204697398,-938.180,-196.115,262.788,-420.000,-3780.000,-1190.000,121.500,204.000,-421.500,,-15380,-3215,4308,-6,-54,-17,81,136,-281,0x20
204698840,-941.169,-198.616,268.583,-140.000,-3500.000,-1540.000,121.500,204.000,-421.500,,-15429,-3256,4403,-2,-50,-22,81,136,-281,0x18
204707445,-941.169,-198.616,268.583,-140.000,-3500.000,-1540.000,129.000,210.000,-417.000,,-15429,-3256,4403,-2,-50,-22,86,140,-278,0x20
204715655,-941.169,-201.849,272.365,350.000,-3220.000,-1960.000,129.000,210.000,-417.000,,-15429,-3309,4465,5,-46,-28,86,140,-278,0x18
204717357,-941.169,-201.849,272.365,350.000,-3220.000,-1960.000,121.500,204.000,-420.000,,-15429,-3309,4465,5,-46,-28,81,136,-280,0x20
204727306,-941.169,-201.849,272.365,350.000,-3220.000,-1960.000,123.000,196.500,-417.000,,-15429,-3309,4465,5,-46,-28,82,131,-278,0x20
204732548,-935.496,-203.557,273.768,-70.000,-2800.000,-1680.000,123.000,196.500,-417.000,,-15336,-3337,4488,-1,-40,-24,82,131,-278,0x18
204737110,-935.496,-203.557,273.768,-70.000,-2800.000,-1680.000,130.500,193.500,-417.000,,-15336,-3337,4488,-1,-40,-24,87,129,-278,0x20
204747053,-935.496,-203.557,273.768,-70.000,-2800.000,-1680.000,129.000,201.000,-417.000,,-15336,-3337,4488,-1,-40,-24,86,134,-278,0x20
204749321,-929.701,-201.727,273.280,-770.000,-2380.000,-1470.000,129.000,201.000,-417.000,,-15241,-3307,4480,-11,-34,-21,86,134,-278,0x18
204756968,-929.701,-201.727,273.280,-770.000,-2380.000,-1470.000,123.000,195.000,-420.000,,-15241,-3307,4480,-11,-34,-21,82,130,-280,0x20
204766107,-929.701,-201.727,273.280,-560.000,-1890.000,-1400.000,123.000,195.000,-420.000,,-15241,-3307,4480,-8,-27,-20,82,130,-280,0x10
204766290,-933.544,-197.823,259.921,-560.000,-1890.000,-1400.000,123.000,195.000,-420.000,,-15304,-3243,4261,-8,-27,-20,82,130,-280,0x08
204766879,-933.544,-197.823,259.921,-560.000,-1890.000,-1400.000,132.000,202.500,-418.500,,-15304,-3243,4261,-8,-27,-20,88,135,-279,0x20
204776835,-933.544,-197.823,259.921,-560.000,-1890.000,-1400.000,121.500,205.500,-421.500,,-15304,-3243,4261,-8,-27,-20,81,137,-281,0x20
204783002,-936.716,-187.636,268.156,-140.000,-1610.000,-1190.000,121.500,205.500,-421.500,,-15356,-3076,4396,-2,-23,-17,81,137,-281,0x18
204786636,-936.716,-187.636,268.156,-140.000,-1610.000,-1190.000,126.000,202.500,-423.000,,-15356,-3076,4396,-2,-23,-17,84,135,-282,0x20
204796599,-936.716,-187.636,268.156,-140.000,-1610.000,-1190.000,121.500,198.000,-418.500,,-15356,-3076,4396,-2,-23,-17,81,132,-279,0x20
204799809,-933.544,-192.333,274.012,210.000,-1330.000,-1050.000,121.500,198.000,-418.500,,-15304,-3153,4492,3,-19,-15,81,132,-279,0x18
204806529,-933.544,-192.333,274.012,210.000,-1330.000,-1050.000,130.500,198.000,-414.000,,-15304,-3153,4492,3,-19,-15,87,132,-276,0x20
204816475,-933.544,-192.333,274.012,210.000,-1330.000,-1050.000,124.500,195.000,-408.000,,-15304,-3153,4492,3,-19,-15,83,130,-272,0x20
204816833,-932.568,-204.472,279.563,-70.000,-1820.000,-420.000,124.500,195.000,-408.000,,-15288,-3352,4583,-1,-26,-6,83,130,-272,0x18
204826379,-932.568,-204.472,279.563,-70.000,-1820.000,-420.000,127.500,201.000,-412.500,,-15288,-3352,4583,-1,-26,-6,85,134,-275,0x20
204833504,-938.180,-206.729,274.500,70.000,-2030.000,-420.000,127.500,201.000,-412.500,,-15380,-3389,4500,1,-29,-6,85,134,-275,0x18
204836293,-938.180,-206.729,274.500,70.000,-2030.000,-420.000,121.500,196.500,-414.000,,-15380,-3389,4500,1,-29,-6,81,131,-276,0x20
204846107,-938.180,-206.729,274.500,70.000,-2030.000,-420.000,124.500,198.000,-418.500,,-15380,-3389,4500,1,-29,-6,83,132,-279,0x20
204850265,-942.389,-199.287,270.657,210.000,-1960.000,-910.000,124.500,198.000,-418.500,,-15449,-3267,4437,3,-28,-13,83,132,-279,0x18
204856025,-942.389,-199.287,270.657,210.000,-1960.000,-910.000,121.500,192.000,-429.000,,-15449,-3267,4437,3,-28,-13,81,128,-286,0x20
204865972,-942.389,-199.287,270.657,210.000,-1960.000,-910.000,126.000,190.500,-424.500,,-15449,-3267,4437,3,-28,-13,84,127,-283,0x20
204867138,-939.400,-192.760,269.620,350.000,-1750.000,-1120.000,126.000,190.500,-424.500,,-15400,-3160,4420,5,-25,-16,84,127,-283,0x18
204875854,-939.400,-192.760,269.620,350.000,-1750.000,-1120.000,121.500,196.500,-421.500,,-15400,-3160,4420,5,-25,-16,81,131,-281,0x20
204883915,-939.400,-192.760,269.620,280.000,-910.000,-700.000,121.500,196.500,-421.500,,-15400,-3160,4420,4,-13,-10,81,131,-281,0x10
204884098,-935.557,-187.453,270.352,280.000,-910.000,-700.000,121.500,196.500,-421.500,,-15337,-3073,4432,4,-13,-10,81,131,-281,0x08
204885779,-935.557,-187.453,270.352,280.000,-910.000,-700.000,118.500,193.500,-420.000,,-15337,-3073,4432,4,-13,-10,79,129,-280,0x20
204895727,-935.557,-187.453,270.352,280.000,-910.000,-700.000,120.000,193.500,-417.000,,-15337,-3073,4432,4,-13,-10,80,129,-278,0x20
204900817,-937.021,-196.176,275.171,350.000,70.000,-980.000,120.000,193.500,-417.000,,-15361,-3216,4511,5,1,-14,80,129,-278,0x18
204905648,-937.021,-196.176,275.171,350.000,70.000,-980.000,127.500,195.000,-427.500,,-15361,-3216,4511,5,1,-14,85,130,-285,0x20
204915458,-937.021,-196.176,275.171,350.000,70.000,-980.000,129.000,195.000,-420.000,,-15361,-3216,4511,5,1,-14,86,130,-280,0x20
204917568,-937.021,-196.176,275.171,630.000,0.000,-1120.000,129.000,195.000,-420.000,,-15361,-3216,4511,9,0,-16,86,130,-280,0x10
204917753,-945.073,-203.740,278.953,630.000,0.000,-1120.000,129.000,195.000,-420.000,,-15493,-3340,4573,9,0,-16,86,130,-280,0x08
204925377,-945.073,-203.740,278.953,630.000,0.000,-1120.000,124.500,202.500,-418.500,,-15493,-3340,4573,9,0,-16,83,135,-279,0x20
204934512,-944.707,-200.751,282.064,700.000,-1050.000,-1400.000,124.500,202.500,-418.500,,-15487,-3291,4624,10,-15,-20,83,135,-279,0x18
204935267,-944.707,-200.751,282.064,700.000,-1050.000,-1400.000,126.000,196.500,-418.500,,-15487,-3291,4624,10,-15,-20,84,131,-279,0x20
204945227,-944.707,-200.751,282.064,700.000,-1050.000,-1400.000,129.000,198.000,-417.000,,-15487,-3291,4624,10,-15,-20,86,132,-278,0x20
204951274,-940.864,-196.847,280.905,770.000,-1890.000,-1190.000,129.000,198.000,-417.000,,-15424,-3227,4605,11,-27,-17,86,132,-278,0x18
204955143,-940.864,-196.847,280.905,770.000,-1890.000,-1190.000,130.500,207.000,-421.500,,-15424,-3227,4605,11,-27,-17,87,138,-281,0x20
204965087,-940.864,-196.847,280.905,770.000,-1890.000,-1190.000,132.000,198.000,-424.500,,-15424,-3227,4605,11,-27,-17,88,132,-283,0x20
204968169,-937.143,-198.189,279.563,420.000,-1960.000,-1190.000,132.000,198.000,-424.500,,-15363,-3249,4583,6,-28,-17,88,132,-283,0x18
204975016,-937.143,-198.189,279.563,420.000,-1960.000,-1190.000,123.000,202.500,-429.000,,-15363,-3249,4583,6,-28,-17,82,135,-286,0x20
204984820,-937.143,-198.189,279.563,420.000,-1960.000,-1190.000,126.000,207.000,-418.500,,-15363,-3249,4583,6,-28,-17,84,138,-279,0x20
204985176,-936.960,-198.311,274.988,140.000,-1960.000,-1610.000,126.000,207.000,-418.500,,-15360,-3251,4508,2,-28,-23,84,138,-279,0x18
204994718,-936.960,-198.311,274.988,140.000,-1960.000,-1610.000,127.500,198.000,-420.000,,-15360,-3251,4508,2,-28,-23,85,132,-280,0x20
205001699,-936.960,-198.311,274.988,280.000,-2100.000,-1890.000,127.500,198.000,-420.000,,-15360,-3251,4508,4,-30,-27,85,132,-280,0x10
205001883,-943.060,-198.067,275.476,280.000,-2100.000,-1890.000,127.500,198.000,-420.000,,-15460,-3247,4516,4,-30,-27,85,132,-280,0x08
205004650,-943.060,-198.067,275.476,280.000,-2100.000,-1890.000,123.000,199.500,-426.000,,-15460,-3247,4516,4,-30,-27,82,133,-284,0x20
205014605,-943.060,-198.067,275.476,280.000,-2100.000,-1890.000,126.000,195.000,-423.000,,-15460,-3247,4516,4,-30,-27,84,130,-282,0x20
205018612,-936.472,-193.248,280.661,210.000,-2450.000,-840.000,126.000,195.000,-423.000,,-15352,-3168,4601,3,-35,-12,84,130,-282,0x18
205024521,-936.472,-193.248,280.661,210.000,-2450.000,-840.000,124.500,205.500,-426.000,,-15352,-3168,4601,3,-35,-12,83,137,-284,0x20
205034341,-936.472,-193.248,280.661,210.000,-2450.000,-840.000,121.500,201.000,-426.000,,-15352,-3168,4601,3,-35,-12,81,134,-284,0x20
205035372,-932.080,-193.492,279.868,210.000,-2380.000,-70.000,121.500,201.000,-426.000,,-15280,-3172,4588,3,-34,-1,81,134,-284,0x18
205044244,-932.080,-193.492,279.868,210.000,-2380.000,-70.000,132.000,204.000,-424.500,,-15280,-3172,4588,3,-34,-1,88,136,-283,0x20
205052177,-932.080,-193.492,279.868,490.000,-2240.000,-140.000,132.000,204.000,-424.500,,-15280,-3172,4588,7,-32,-2,88,136,-283,0x10
205052360,-932.263,-200.263,281.271,490.000,-2240.000,-140.000,132.000,204.000,-424.500,,-15283,-3283,4611,7,-32,-2,88,136,-283,0x08
205054185,-932.263,-200.263,281.271,490.000,-2240.000,-140.000,124.500,196.500,-424.500,,-15283,-3283,4611,7,-32,-2,83,131,-283,0x20
205064132,-932.263,-200.263,281.271,490.000,-2240.000,-140.000,126.000,196.500,-418.500,,-15283,-3283,4611,7,-32,-2,84,131,-279,0x20
205069103,-939.217,-198.311,279.380,560.000,-1610.000,70.000,126.000,196.500,-418.500,,-15397,-3251,4580,8,-23,1,84,131,-279,0x18
205074060,-939.217,-198.311,279.380,560.000,-1610.000,70.000,126.000,187.500,-424.500,,-15397,-3251,4580,8,-23,1,84,125,-283,0x20
205083876,-939.217,-198.311,279.380,560.000,-1610.000,70.000,112.500,202.500,-420.000,,-15397,-3251,4580,8,-23,1,75,135,-280,0x20
205085875,-934.520,-199.409,276.635,700.000,-420.000,-350.000,112.500,202.500,-420.000,,-15320,-3269,4535,10,-6,-5,75,135,-280,0x18
205093793,-934.520,-199.409,276.635,700.000,-420.000,-350.000,123.000,199.500,-432.000,,-15320,-3269,4535,10,-6,-5,82,133,-288,0x20
205102794,-929.396,-198.860,277.123,840.000,280.000,-140.000,123.000,199.500,-432.000,,-15236,-3260,4543,12,4,-2,82,133,-288,0x18
205103682,-929.396,-198.860,277.123,840.000,280.000,-140.000,120.000,199.500,-430.500,,-15236,-3260,4543,12,4,-2,80,133,-287,0x20
205113622,-929.396,-198.860,277.123,840.000,280.000,-140.000,124.500,201.000,-429.000,,-15236,-3260,4543,12,4,-2,83,134,-286,0x20
205119520,-933.056,-195.871,273.829,910.000,280.000,0.000,124.500,201.000,-429.000,,-15296,-3211,4489,13,4,0,83,134,-286,0x18
205123533,-933.056,-195.871,273.829,910.000,280.000,0.000,126.000,196.500,-432.000,,-15296,-3211,4489,13,4,0,84,131,-288,0x20
205133473,-933.056,-195.871,273.829,910.000,280.000,0.000,124.500,202.500,-421.500,,-15296,-3211,4489,13,4,0,83,135,-281,0x20
205136416,-941.108,-191.601,278.343,1330.000,210.000,-70.000,124.500,202.500,-421.500,,-15428,-3141,4563,19,3,-1,83,135,-281,0x18
205143390,-941.108,-191.601,278.343,1330.000,210.000,-70.000,123.000,196.500,-432.000,,-15428,-3141,4563,19,3,-1,82,131,-288,0x20
205153199,-944.463,-193.248,278.160,1470.000,560.000,-350.000,127.500,205.500,-417.000,,-15483,-3168,4560,21,8,-5,85,137,-278,0x38
205163218,-944.463,-193.248,278.160,1470.000,560.000,-350.000,127.500,198.000,-426.000,,-15483,-3168,4560,21,8,-5,85,132,-284,0x20
205170062,-941.413,-197.152,282.064,1610.000,0.000,-350.000,127.500,198.000,-426.000,,-15433,-3232,4624,23,0,-5,85,132,-284,0x18
205173130,-941.413,-197.152,282.064,1610.000,0.000,-350.000,121.500,199.500,-430.500,,-15433,-3232,4624,23,0,-5,81,133,-287,0x20
205182949,-941.413,-197.152,282.064,1610.000,0.000,-350.000,121.500,204.000,-426.000,,-15433,-3232,4624,23,0,-5,81,136,-284,0x20
205186821,-936.655,-199.104,286.456,1330.000,-770.000,-140.000,121.500,204.000,-426.000,,-15355,-3264,4696,19,-11,-2,81,136,-284,0x18
205192851,-936.655,-199.104,286.456,1330.000,-770.000,-140.000,127.500,198.000,-421.500,,-15355,-3264,4696,19,-11,-2,85,132,-281,0x20
205202813,-936.655,-199.104,286.456,1330.000,-770.000,-140.000,126.000,204.000,-432.000,,-15355,-3264,4696,19,-11,-2,84,136,-288,0x20
205203727,-937.448,-198.677,286.212,1120.000,-1330.000,-350.000,126.000,204.000,-432.000,,-15368,-3257,4692,16,-19,-5,84,136,-288,0x18
205212732,-937.448,-198.677,286.212,1120.000,-1330.000,-350.000,126.000,204.000,-420.000,,-15368,-3257,4692,16,-19,-5,84,136,-280,0x20
205220530,-935.984,-194.224,285.541,770.000,-1750.000,-420.000,126.000,204.000,-420.000,,-15344,-3184,4681,11,-25,-6,84,136,-280,0x18
205222635,-935.984,-194.224,285.541,770.000,-1750.000,-420.000,127.500,199.500,-427.500,,-15344,-3184,4681,11,-25,-6,85,133,-285,0x20
205232460,-935.984,-194.224,285.541,770.000,-1750.000,-420.000,124.500,201.000,-424.500,,-15344,-3184,4681,11,-25,-6,83,134,-283,0x20
205237291,-935.984,-194.224,285.541,560.000,-1330.000,-210.000,124.500,201.000,-424.500,,-15344,-3184,4681,8,-19,-3,83,134,-283,0x10
205237475,-938.668,-193.980,283.833,560.000,-1330.000,-210.000,124.500,201.000,-424.500,,-15388,-3180,4653,8,-19,-3,83,134,-283,0x08
205242401,-938.668,-193.980,283.833,560.000,-1330.000,-210.000,120.000,198.000,-421.500,,-15388,-3180,4653,8,-19,-3,80,132,-281,0x20
205252336,-938.668,-193.980,283.833,560.000,-1330.000,-210.000,117.000,193.500,-427.500,,-15388,-3180,4653,8,-19,-3,78,129,-285,0x20
205254188,-943.243,-195.444,285.968,350.000,-980.000,-420.000,117.000,193.500,-427.500,,-15463,-3204,4688,5,-14,-6,78,129,-285,0x18
205262240,-943.243,-195.444,285.968,350.000,-980.000,-420.000,126.000,201.000,-420.000,,-15463,-3204,4688,5,-14,-6,84,134,-280,0x20
205270973,-943.487,-198.128,283.528,280.000,-1050.000,-490.000,126.000,201.000,-420.000,,-15467,-3248,4648,4,-15,-7,84,134,-280,0x18
205272134,-943.487,-198.128,283.528,280.000,-1050.000,-490.000,126.000,202.500,-415.500,,-15467,-3248,4648,4,-15,-7,84,135,-277,0x20
205282070,-943.487,-198.128,283.528,280.000,-1050.000,-490.000,123.000,198.000,-423.000,,-15467,-3248,4648,4,-15,-7,82,132,-282,0x20
205287835,-937.204,-197.457,283.589,490.000,-1540.000,-490.000,123.000,198.000,-423.000,,-15364,-3237,4649,7,-22,-7,82,132,-282,0x18
205291982,-937.204,-197.457,283.589,490.000,-1540.000,-490.000,132.000,205.500,-435.000,,-15364,-3237,4649,7,-22,-7,88,137,-290,0x20
205301931,-937.204,-197.457,283.589,490.000,-1540.000,-490.000,120.000,201.000,-426.000,,-15364,-3237,4649,7,-22,-7,80,134,-284,0x20
205304727,-937.143,-191.296,285.724,210.000,-910.000,-280.000,120.000,201.000,-426.000,,-15363,-3136,4684,3,-13,-4,80,134,-284,0x18
205311835,-937.143,-191.296,285.724,210.000,-910.000,-280.000,124.500,201.000,-421.500,,-15363,-3136,4684,3,-13,-4,83,134,-281,0x20
205321512,-930.860,-191.967,287.371,280.000,-140.000,-280.000,124.500,201.000,-421.500,,-15260,-3147,4711,4,-2,-4,83,134,-281,0x18
205321727,-930.860,-191.967,287.371,280.000,-140.000,-280.000,127.500,201.000,-424.500,,-15260,-3147,4711,4,-2,-4,85,134,-283,0x20
205331528,-930.860,-191.967,287.371,280.000,-140.000,-280.000,129.000,204.000,-427.500,,-15260,-3147,4711,4,-2,-4,86,136,-285,0x20
205338372,-931.348,-194.651,286.944,140.000,630.000,-70.000,129.000,204.000,-427.500,,-15268,-3191,4704,2,9,-1,86,136,-285,0x18
205341700,-931.348,-194.651,286.944,140.000,630.000,-70.000,136.500,198.000,-420.000,,-15268,-3191,4704,2,9,-1,91,132,-280,0x20
205351512,-931.348,-194.651,286.944,140.000,630.000,-70.000,129.000,202.500,-426.000,,-15268,-3191,4704,2,9,-1,86,135,-284,0x20
205355131,-936.716,-194.468,284.748,490.000,1750.000,-280.000,129.000,202.500,-426.000,,-15356,-3188,4668,7,25,-4,86,135,-284,0x18
205361430,-936.716,-194.468,284.748,490.000,1750.000,-280.000,120.000,199.500,-424.500,,-15356,-3188,4668,7,25,-4,80,133,-283,0x20
205371377,-936.716,-194.468,284.748,490.000,1750.000,-280.000,126.000,199.500,-421.500,,-15356,-3188,4668,7,25,-4,84,133,-281,0x20
205372004,-938.851,-196.176,281.820,700.000,2310.000,-630.000,126.000,199.500,-421.500,,-15391,-3216,4620,10,33,-9,84,133,-281,0x18
205381260,-938.851,-196.176,281.820,700.000,2310.000,-630.000,124.500,205.500,-432.000,,-15391,-3216,4620,10,33,-9,83,137,-288,0x20
205388781,-935.679,-196.115,281.637,630.000,2100.000,-490.000,124.500,205.500,-432.000,,-15339,-3215,4617,9,30,-7,83,137,-288,0x18
205391165,-935.679,-196.115,281.637,630.000,2100.000,-490.000,124.500,211.500,-426.000,,-15339,-3215,4617,9,30,-7,83,141,-284,0x20
205401108,-935.679,-196.115,281.637,630.000,2100.000,-490.000,129.000,198.000,-430.500,,-15339,-3215,4617,9,30,-7,86,132,-287,0x20
205405670,-937.875,-196.603,280.905,350.000,1750.000,-490.000,129.000,198.000,-430.500,,-15375,-3223,4605,5,25,-7,86,132,-287,0x18
205411032,-937.875,-196.603,280.905,350.000,1750.000,-490.000,115.500,202.500,-430.500,,-15375,-3223,4605,5,25,-7,77,135,-287,0x20
205420972,-937.875,-196.603,280.905,350.000,1750.000,-490.000,129.000,202.500,-426.000,,-15375,-3223,4605,5,25,-7,86,135,-284,0x20
205422408,-942.145,-195.444,281.027,280.000,1330.000,-560.000,129.000,202.500,-426.000,,-15445,-3204,4607,4,19,-8,86,135,-284,0x18
205430854,-942.145,-195.444,281.027,280.000,1330.000,-560.000,132.000,204.000,-421.500,,-15445,-3204,4607,4,19,-8,88,136,-281,0x20
205439319,-937.448,-192.333,281.332,350.000,910.000,-140.000,132.000,204.000,-421.500,,-15368,-3153,4612,5,13,-2,88,136,-281,0x18
205440749,-937.448,-192.333,281.332,350.000,910.000,-140.000,127.500,193.500,-433.500,,-15368,-3153,4612,5,13,-2,85,129,-289,0x20
205450564,-937.448,-192.333,281.332,350.000,910.000,-140.000,126.000,202.500,-427.500,,-15368,-3153,4612,5,13,-2,84,135,-285,0x20
205456075,-933.971,-194.773,281.576,490.000,840.000,70.000,126.000,202.500,-427.500,,-15311,-3193,4616,7,12,1,84,135,-285,0x18
205460491,-933.971,-194.773,281.576,490.000,840.000,70.000,117.000,201.000,-418.500,,-15311,-3193,4616,7,12,1,78,134,-279,0x20
205470430,-933.971,-194.773,281.576,490.000,840.000,70.000,123.000,198.000,-420.000,,-15311,-3193,4616,7,12,1,82,132,-280,0x20
205472945,-936.960,-196.847,283.040,490.000,700.000,-70.000,123.000,198.000,-420.000,,-15360,-3227,4640,7,10,-1,82,132,-280,0x18
205480315,-936.960,-196.847,283.040,490.000,700.000,-70.000,132.000,195.000,-423.000,,-15360,-3227,4640,7,10,-1,88,130,-282,0x20
205489732,-944.097,-192.028,284.748,560.000,70.000,-350.000,132.000,195.000,-423.000,,-15477,-3148,4668,8,1,-5,88,130,-282,0x18
205490217,-944.097,-192.028,284.748,560.000,70.000,-350.000,135.000,208.500,-421.500,,-15477,-3148,4668,8,1,-5,90,139,-281,0x20
205500171,-944.097,-192.028,284.748,560.000,70.000,-350.000,127.500,205.500,-424.500,,-15477,-3148,4668,8,1,-5,85,137,-283,0x20
205506602,-940.437,-189.893,286.761,420.000,210.000,-210.000,127.500,205.500,-424.500,,-15417,-3113,4701,6,3,-3,85,137,-283,0x18
205510078,-940.437,-189.893,286.761,420.000,210.000,-210.000,124.500,199.500,-418.500,,-15417,-3113,4701,6,3,-3,83,133,-279,0x20
205520041,-940.437,-189.893,286.761,420.000,210.000,-210.000,130.500,205.500,-418.500,,-15417,-3113,4701,6,3,-3,87,137,-279,0x20
205523364,-940.437,-189.893,286.761,-140.000,700.000,70.000,130.500,205.500,-418.500,,-15417,-3113,4701,-2,10,1,87,137,-279,0x10
205523547,-938.363,-193.492,284.443,-140.000,700.000,70.000,130.500,205.500,-418.500,,-15383,-3172,4663,-2,10,1,87,137,-279,0x08
205529946,-938.363,-193.492,284.443,-140.000,700.000,70.000,130.500,199.500,-430.500,,-15383,-3172,4663,-2,10,1,87,133,-287,0x20
205539774,-938.363,-193.492,284.443,-140.000,700.000,70.000,127.500,199.500,-423.000,,-15383,-3172,4663,-2,10,1,85,133,-282,0x20
205540266,-941.047,-200.019,272.792,630.000,490.000,-210.000,127.500,199.500,-423.000,,-15427,-3279,4472,9,7,-3,85,133,-282,0x18
205549671,-941.047,-200.019,272.792,630.000,490.000,-210.000,115.500,205.500,-421.500,,-15427,-3279,4472,9,7,-3,77,137,-281,0x20
205557070,-938.424,-193.004,283.467,210.000,560.000,-560.000,115.500,205.500,-421.500,,-15384,-3164,4647,3,8,-8,77,137,-281,0x18
205559589,-938.424,-193.004,283.467,210.000,560.000,-560.000,129.000,199.500,-423.000,,-15384,-3164,4647,3,8,-8,86,133,-282,0x20
205569542,-938.424,-193.004,283.467,210.000,560.000,-560.000,123.000,205.500,-427.500,,-15384,-3164,4647,3,8,-8,82,137,-285,0x20
205573839,-938.424,-193.004,283.467,490.000,-350.000,-700.000,123.000,205.500,-427.500,,-15384,-3164,4647,7,-5,-10,82,137,-285,0x10
205574022,-933.849,-193.309,286.395,490.000,-350.000,-700.000,123.000,205.500,-427.500,,-15309,-3169,4695,7,-5,-10,82,137,-285,0x08
205579485,-933.849,-193.309,286.395,490.000,-350.000,-700.000,127.500,201.000,-418.500,,-15309,-3169,4695,7,-5,-10,85,134,-279,0x20
205589302,-933.849,-193.309,286.395,490.000,-350.000,-700.000,127.500,211.500,-424.500,,-15309,-3169,4695,7,-5,-10,85,141,-283,0x20
205590739,-935.252,-192.943,294.813,70.000,-630.000,-70.000,127.500,211.500,-424.500,,-15332,-3163,4833,1,-9,-1,85,141,-283,0x18
205599218,-935.252,-192.943,294.813,70.000,-630.000,-70.000,130.500,199.500,-426.000,,-15332,-3163,4833,1,-9,-1,87,133,-284,0x20
205607544,-942.755,-200.080,286.151,630.000,-630.000,-140.000,130.500,199.500,-426.000,,-15455,-3280,4691,9,-9,-2,87,133,-284,0x18
205609109,-942.755,-200.080,286.151,630.000,-630.000,-140.000,118.500,205.500,-421.500,,-15455,-3280,4691,9,-9,-2,79,137,-281,0x20
205619074,-942.755,-200.080,286.151,630.000,-630.000,-140.000,132.000,207.000,-427.500,,-15455,-3280,4691,9,-9,-2,88,138,-285,0x20
205624441,-938.973,-193.736,288.408,700.000,840.000,-770.000,132.000,207.000,-427.500,,-15393,-3176,4728,10,12,-11,88,138,-285,0x18
205628986,-938.973,-193.736,288.408,700.000,840.000,-770.000,130.500,204.000,-421.500,,-15393,-3176,4728,10,12,-11,87,136,-281,0x20
205638949,-938.973,-193.736,288.408,700.000,840.000,-770.000,127.500,198.000,-430.500,,-15393,-3176,4728,10,12,-11,85,132,-287,0x20
205641202,-937.204,-187.148,276.452,910.000,1190.000,-1400.000,127.500,198.000,-430.500,,-15364,-3068,4532,13,17,-20,85,132,-287,0x18
205648860,-937.204,-187.148,276.452,910.000,1190.000,-1400.000,124.500,199.500,-429.000,,-15364,-3068,4532,13,17,-20,83,133,-286,0x20
205658014,-935.740,-186.477,278.892,980.000,1540.000,-1540.000,124.500,199.500,-429.000,,-15340,-3057,4572,14,22,-22,83,133,-286,0x18
205658772,-935.740,-186.477,278.892,980.000,1540.000,-1540.000,133.500,210.000,-421.500,,-15340,-3057,4572,14,22,-22,89,140,-281,0x20
205668587,-935.740,-186.477,278.892,980.000,1540.000,-1540.000,120.000,202.500,-424.500,,-15340,-3057,4572,14,22,-22,80,135,-283,0x20
205674906,-938.851,-192.699,282.369,490.000,1820.000,-1120.000,120.000,202.500,-424.500,,-15391,-3159,4629,7,26,-16,80,135,-283,0x18
205678502,-938.851,-192.699,282.369,490.000,1820.000,-1120.000,130.500,205.500,-420.000,,-15391,-3159,4629,7,26,-16,87,137,-280,0x20
205688446,-938.851,-192.699,282.369,490.000,1820.000,-1120.000,124.500,207.000,-426.000,,-15391,-3159,4629,7,26,-16,83,138,-284,0x20
205691661,-945.256,-199.104,286.944,280.000,1540.000,-1050.000,124.500,207.000,-426.000,,-15496,-3264,4704,4,22,-15,83,138,-284,0x18
205698368,-945.256,-199.104,286.944,280.000,1540.000,-1050.000,127.500,207.000,-426.000,,-15496,-3264,4704,4,22,-15,85,138,-284,0x20
205708177,-945.256,-199.104,286.944,280.000,1540.000,-1050.000,121.500,198.000,-424.500,,-15496,-3264,4704,4,22,-15,81,132,-283,0x20
205708536,-943.060,-193.492,285.968,140.000,630.000,-700.000,121.500,198.000,-424.500,,-15460,-3172,4688,2,9,-10,81,132,-283,0x18
205718201,-943.060,-193.492,285.968,140.000,630.000,-700.000,124.500,202.500,-426.000,,-15460,-3172,4688,2,9,-10,83,135,-284,0x20
205725330,-937.692,-188.612,279.929,280.000,770.000,-210.000,124.500,202.500,-426.000,,-15372,-3092,4589,4,11,-3,83,135,-284,0x18
205727992,-937.692,-188.612,279.929,280.000,770.000,-210.000,120.000,205.500,-423.000,,-15372,-3092,4589,4,11,-3,80,137,-282,0x20
205737931,-937.692,-188.612,279.929,280.000,770.000,-210.000,124.500,204.000,-421.500,,-15372,-3092,4589,4,11,-3,83,136,-281,0x20
205742225,-932.507,-192.821,279.685,560.000,1330.000,-630.000,124.500,204.000,-421.500,,-15287,-3161,4585,8,19,-9,83,136,-281,0x18
205747847,-932.507,-192.821,279.685,560.000,1330.000,-630.000,123.000,207.000,-421.500,,-15287,-3161,4585,8,19,-9,82,138,-281,0x20
205757811,-932.507,-192.821,279.685,560.000,1330.000,-630.000,123.000,208.500,-424.500,,-15287,-3161,4585,8,19,-9,82,139,-283,0x20
205758996,-938.973,-194.712,280.112,210.000,770.000,-630.000,123.000,208.500,-424.500,,-15393,-3192,4592,3,11,-9,82,139,-283,0x18
205767740,-938.973,-194.712,280.112,210.000,770.000,-630.000,127.500,202.500,-417.000,,-15393,-3192,4592,3,11,-9,85,135,-278,0x20
205775798,-939.461,-196.176,279.136,70.000,0.000,-420.000,127.500,202.500,-417.000,,-15401,-3216,4576,1,0,-6,85,135,-278,0x18
205777633,-939.461,-196.176,279.136,70.000,0.000,-420.000,127.500,202.500,-424.500,,-15401,-3216,4576,1,0,-6,85,135,-283,0x20
205787457,-939.461,-196.176,279.136,70.000,0.000,-420.000,126.000,210.000,-414.000,,-15401,-3216,4576,1,0,-6,84,140,-276,0x20
205792697,-935.313,-193.919,282.979,-70.000,-70.000,-350.000,126.000,210.000,-414.000,,-15333,-3179,4639,-1,-1,-5,84,140,-276,0x18
205797384,-935.313,-193.919,282.979,-70.000,-70.000,-350.000,133.500,192.000,-423.000,,-15333,-3179,4639,-1,-1,-5,89,128,-282,0x20
205807342,-935.313,-193.919,282.979,-70.000,-70.000,-350.000,129.000,205.500,-424.500,,-15333,-3179,4639,-1,-1,-5,86,137,-283,0x20
205809464,-935.679,-191.296,285.053,-210.000,210.000,-280.000,129.000,205.500,-424.500,,-15339,-3136,4673,-3,3,-4,86,137,-283,0x18
205817255,-935.679,-191.296,285.053,-210.000,210.000,-280.000,124.500,207.000,-424.500,,-15339,-3136,4673,-3,3,-4,83,138,-283,0x20
205826265,-935.679,-191.296,285.053,490.000,420.000,-560.000,124.500,207.000,-424.500,,-15339,-3136,4673,7,6,-8,83,138,-283,0x10
205826448,-939.705,-196.969,280.844,490.000,420.000,-560.000,124.500,207.000,-424.500,,-15405,-3229,4604,7,6,-8,83,138,-283,0x08
205827172,-939.705,-196.969,280.844,490.000,420.000,-560.000,124.500,198.000,-423.000,,-15405,-3229,4604,7,6,-8,83,132,-282,0x20
205836996,-939.705,-196.969,280.844,490.000,420.000,-560.000,127.500,207.000,-414.000,,-15405,-3229,4604,7,6,-8,85,138,-276,0x20
205843160,-939.156,-194.956,286.273,420.000,560.000,-280.000,127.500,207.000,-414.000,,-15396,-3196,4693,6,8,-4,85,138,-276,0x18
205846907,-939.156,-194.956,286.273,420.000,560.000,-280.000,124.500,207.000,-420.000,,-15396,-3196,4693,6,8,-4,83,138,-280,0x20
205856870,-939.156,-194.956,286.273,420.000,560.000,-280.000,124.500,207.000,-423.000,,-15396,-3196,4693,6,8,-4,83,138,-282,0x20
205859943,-938.912,-193.492,281.149,280.000,420.000,-140.000,124.500,207.000,-423.000,,-15392,-3172,4609,4,6,-2,83,138,-282,0x18
205866797,-938.912,-193.492,281.149,280.000,420.000,-140.000,129.000,199.500,-418.500,,-15392,-3172,4609,4,6,-2,86,133,-279,0x20
205876743,-938.912,-193.492,281.149,210.000,350.000,-70.000,132.000,201.000,-420.000,,-15392,-3172,4609,3,5,-1,88,134,-280,0x30
205877132,-938.424,-194.407,277.672,210.000,350.000,-70.000,132.000,201.000,-420.000,,-15384,-3187,4552,3,5,-1,88,134,-280,0x08
205886650,-938.424,-194.407,277.672,210.000,350.000,-70.000,130.500,196.500,-423.000,,-15384,-3187,4552,3,5,-1,87,131,-282,0x20
205893640,-941.596,-193.004,279.197,70.000,210.000,-560.000,130.500,196.500,-423.000,,-15436,-3164,4577,1,3,-8,87,131,-282,0x18
205896564,-941.596,-193.004,279.197,70.000,210.000,-560.000,126.000,207.000,-426.000,,-15436,-3164,4577,1,3,-8,84,138,-284,0x20
205906378,-941.596,-193.004,279.197,70.000,210.000,-560.000,133.500,210.000,-429.000,,-15436,-3164,4577,1,3,-8,89,140,-286,0x20
205910400,-941.596,-193.004,279.197,210.000,-210.000,-700.000,133.500,210.000,-429.000,,-15436,-3164,4577,3,-3,-10,89,140,-286,0x10
205910584,-941.108,-192.516,279.685,210.000,-210.000,-700.000,133.500,210.000,-429.000,,-15428,-3156,4585,3,-3,-10,89,140,-286,0x08
205916337,-941.108,-192.516,279.685,210.000,-210.000,-700.000,121.500,204.000,-414.000,,-15428,-3156,4585,3,-3,-10,81,136,-276,0x20
205926160,-941.108,-192.516,279.685,210.000,-210.000,-700.000,130.500,207.000,-418.500,,-15428,-3156,4585,3,-3,-10,87,138,-279,0x20
205927327,-937.204,-192.821,285.053,0.000,-280.000,-980.000,130.500,207.000,-418.500,,-15364,-3161,4673,0,-4,-14,87,138,-279,0x18
205936069,-937.204,-192.821,285.053,0.000,-280.000,-980.000,129.000,207.000,-417.000,,-15364,-3161,4673,0,-4,-14,86,138,-278,0x20
205944137,-937.387,-195.993,286.944,-140.000,-420.000,-1190.000,129.000,207.000,-417.000,,-15367,-3213,4704,-2,-6,-17,86,138,-278,0x18
205946000,-937.387,-195.993,286.944,-140.000,-420.000,-1190.000,135.000,207.000,-432.000,,-15367,-3213,4704,-2,-6,-17,90,138,-288,0x20
205955950,-937.387,-195.993,286.944,-140.000,-420.000,-1190.000,126.000,201.000,-424.500,,-15367,-3213,4704,-2,-6,-17,84,134,-283,0x20
205960919,-941.657,-196.359,290.421,-70.000,-350.000,-1540.000,126.000,201.000,-424.500,,-15437,-3219,4761,-1,-5,-22,84,134,-283,0x18
205965861,-941.657,-196.359,290.421,-70.000,-350.000,-1540.000,121.500,199.500,-423.000,,-15437,-3219,4761,-1,-5,-22,81,133,-282,0x20
205975946,-941.657,-196.359,290.421,-70.000,-350.000,-1540.000,129.000,207.000,-426.000,,-15437,-3219,4761,-1,-5,-22,86,138,-284,0x20
205977787,-941.596,-196.237,292.495,-140.000,210.000,-2170.000,129.000,207.000,-426.000,,-15436,-3217,4795,-2,3,-31,86,138,-284,0x18
205985840,-941.596,-196.237,292.495,-140.000,210.000,-2170.000,124.500,202.500,-420.000,,-15436,-3217,4795,-2,3,-31,83,135,-280,0x20
205994584,-934.093,-183.732,284.992,-280.000,280.000,-1470.000,124.500,202.500,-420.000,,-15313,-3012,4672,-4,4,-21,83,135,-280,0x18
205995746,-934.093,-183.732,284.992,-280.000,280.000,-1470.000,136.500,199.500,-421.500,,-15313,-3012,4672,-4,4,-21,91,133,-281,0x20
206005701,-934.093,-183.732,284.992,-280.000,280.000,-1470.000,123.000,199.500,-424.500,,-15313,-3012,4672,-4,4,-21,82,133,-283,0x20
206011481,-932.263,-184.281,283.223,140.000,140.000,-700.000,123.000,199.500,-424.500,,-15283,-3021,4643,2,2,-10,82,133,-283,0x18
206015494,-932.263,-184.281,283.223,140.000,140.000,-700.000,130.500,201.000,-418.500,,-15283,-3021,4643,2,2,-10,87,134,-279,0x20
206025457,-932.263,-184.281,283.223,140.000,140.000,-700.000,124.500,210.000,-417.000,,-15283,-3021,4643,2,2,-10,83,140,-278,0x20
206028253,-941.169,-193.309,281.576,0.000,-490.000,-420.000,124.500,210.000,-417.000,,-15429,-3169,4616,0,-7,-6,83,140,-278,0x18
206035365,-941.169,-193.309,281.576,0.000,-490.000,-420.000,123.000,208.500,-424.500,,-15429,-3169,4616,0,-7,-6,82,139,-283,0x20
206045052,-948.001,-197.640,284.504,-350.000,-560.000,-910.000,123.000,208.500,-424.500,,-15541,-3240,4664,-5,-8,-13,82,139,-283,0x18
206045268,-948.001,-197.640,284.504,-350.000,-560.000,-910.000,124.500,199.500,-424.500,,-15541,-3240,4664,-5,-8,-13,83,133,-283,0x20
206055227,-948.001,-197.640,284.504,-350.000,-560.000,-910.000,124.500,198.000,-430.500,,-15541,-3240,4664,-5,-8,-13,83,132,-287,0x20
206061948,-942.572,-191.113,282.735,-560.000,-770.000,-560.000,124.500,198.000,-430.500,,-15452,-3133,4635,-8,-11,-8,83,132,-287,0x18
206065142,-942.572,-191.113,282.735,-560.000,-770.000,-560.000,126.000,201.000,-427.500,,-15452,-3133,4635,-8,-11,-8,84,134,-285,0x20
206074955,-942.572,-191.113,282.735,-560.000,-770.000,-560.000,120.000,202.500,-430.500,,-15452,-3133,4635,-8,-11,-8,80,135,-287,0x20
206078710,-937.875,-189.344,282.735,-280.000,-770.000,-630.000,120.000,202.500,-430.500,,-15375,-3104,4635,-4,-11,-9,80,135,-287,0x18
206084881,-937.875,-189.344,282.735,-280.000,-770.000,-630.000,123.000,199.500,-421.500,,-15375,-3104,4635,-4,-11,-9,82,133,-281,0x20
206094820,-937.875,-189.344,282.735,-280.000,-770.000,-630.000,129.000,202.500,-420.000,,-15375,-3104,4635,-4,-11,-9,86,135,-280,0x20
206095581,-938.180,-194.163,284.199,-140.000,-630.000,-1120.000,129.000,202.500,-420.000,,-15380,-3183,4659,-2,-9,-16,86,135,-280,0x18
206104729,-938.180,-194.163,284.199,-140.000,-630.000,-1120.000,129.000,207.000,-427.500,,-15380,-3183,4659,-2,-9,-16,86,138,-285,0x20
206112389,-934.703,-195.200,285.724,-140.000,-560.000,-910.000,129.000,207.000,-427.500,,-15323,-3200,4684,-2,-8,-13,86,138,-285,0x18
206114648,-934.703,-195.200,285.724,-140.000,-560.000,-910.000,126.000,196.500,-426.000,,-15323,-3200,4684,-2,-8,-13,84,131,-284,0x20
206124470,-934.703,-195.200,285.724,-140.000,-560.000,-910.000,129.000,198.000,-420.000,,-15323,-3200,4684,-2,-8,-13,86,132,-280,0x20
206129152,-934.703,-195.200,285.724,-420.000,-420.000,-770.000,129.000,198.000,-420.000,,-15323,-3200,4684,-6,-6,-11,86,132,-280,0x10
206129336,-930.128,-193.004,286.944,-420.000,-420.000,-770.000,129.000,198.000,-420.000,,-15248,-3164,4704,-6,-6,-11,86,132,-280,0x08
206134387,-930.128,-193.004,286.944,-420.000,-420.000,-770.000,130.500,202.500,-417.000,,-15248,-3164,4704,-6,-6,-11,87,135,-278,0x20
206144344,-930.128,-193.004,286.944,-420.000,-420.000,-770.000,127.500,204.000,-429.000,,-15248,-3164,4704,-6,-6,-11,85,136,-286,0x20
206146068,-934.703,-192.272,284.260,-560.000,-770.000,-420.000,127.500,204.000,-429.000,,-15323,-3152,4660,-8,-11,-6,85,136,-286,0x18
206154265,-934.703,-192.272,284.260,-560.000,-770.000,-420.000,124.500,204.000,-433.500,,-15323,-3152,4660,-8,-11,-6,83,136,-289,0x20
206162879,-941.535,-196.359,285.236,-560.000,-840.000,-770.000,124.500,204.000,-433.500,,-15435,-3219,4676,-8,-12,-11,83,136,-289,0x18
206164186,-941.535,-196.359,285.236,-560.000,-840.000,-770.000,120.000,202.500,-427.500,,-15435,-3219,4676,-8,-12,-11,80,135,-285,0x20
206173996,-941.535,-196.359,285.236,-560.000,-840.000,-770.000,124.500,202.500,-429.000,,-15435,-3219,4676,-8,-12,-11,83,135,-286,0x20
206179644,-941.535,-196.359,285.236,-630.000,-350.000,-770.000,124.500,202.500,-429.000,,-15435,-3219,4676,-9,-5,-11,83,135,-286,0x10
206179827,-940.193,-198.189,284.260,-630.000,-350.000,-770.000,124.500,202.500,-429.000,,-15413,-3249,4660,-9,-5,-11,83,135,-286,0x08
206183946,-940.193,-198.189,284.260,-630.000,-350.000,-770.000,124.500,196.500,-426.000,,-15413,-3249,4660,-9,-5,-11,83,131,-284,0x20
206193893,-940.193,-198.189,284.260,-630.000,-350.000,-770.000,118.500,201.000,-421.500,,-15413,-3249,4660,-9,-5,-11,79,134,-281,0x20
206196552,-936.472,-196.664,282.552,-630.000,-210.000,-630.000,118.500,201.000,-421.500,,-15352,-3224,4632,-9,-3,-9,79,134,-281,0x18
206203795,-936.472,-196.664,282.552,-630.000,-210.000,-630.000,127.500,201.000,-420.000,,-15352,-3224,4632,-9,-3,-9,85,134,-280,0x20
206213336,-931.104,-195.871,282.552,-560.000,-140.000,-560.000,127.500,201.000,-420.000,,-15264,-3211,4632,-8,-2,-8,85,134,-280,0x18
206213686,-931.104,-195.871,282.552,-560.000,-140.000,-560.000,121.500,205.500,-427.500,,-15264,-3211,4632,-8,-2,-8,81,137,-285,0x20
206223623,-931.104,-195.871,282.552,-560.000,-140.000,-560.000,120.000,204.000,-429.000,,-15264,-3211,4632,-8,-2,-8,80,136,-286,0x20
206230197,-932.995,-197.335,283.284,-420.000,70.000,-770.000,120.000,204.000,-429.000,,-15295,-3235,4644,-6,1,-11,80,136,-286,0x18
206233535,-932.995,-197.335,283.284,-420.000,70.000,-770.000,129.000,204.000,-423.000,,-15295,-3235,4644,-6,1,-11,86,136,-282,0x20
206243353,-932.995,-197.335,283.284,-420.000,70.000,-770.000,126.000,199.500,-423.000,,-15295,-3235,4644,-6,1,-11,84,133,-282,0x20
206246957,-932.995,-197.335,283.284,-280.000,70.000,-700.000,126.000,199.500,-423.000,,-15295,-3235,4644,-4,1,-10,84,133,-282,0x10
206247140,-936.045,-196.176,285.236,-280.000,70.000,-700.000,126.000,199.500,-423.000,,-15345,-3216,4676,-4,1,-10,84,133,-282,0x08
206253274,-936.045,-196.176,285.236,-280.000,70.000,-700.000,130.500,205.500,-417.000,,-15345,-3216,4676,-4,1,-10,87,137,-278,0x20
206263218,-936.045,-196.176,285.236,-280.000,70.000,-700.000,126.000,198.000,-417.000,,-15345,-3216,4676,-4,1,-10,84,132,-278,0x20
206263845,-935.008,-192.028,287.188,-560.000,210.000,-420.000,126.000,198.000,-417.000,,-15328,-3148,4708,-8,3,-6,84,132,-278,0x18
206273121,-935.008,-192.028,287.188,-560.000,210.000,-420.000,127.500,198.000,-418.500,,-15328,-3148,4708,-8,3,-6,85,132,-279,0x20
206280635,-939.827,-192.272,287.432,-420.000,-490.000,-350.000,127.500,198.000,-418.500,,-15407,-3152,4712,-6,-7,-5,85,132,-279,0x18
206283010,-939.827,-192.272,287.432,-420.000,-490.000,-350.000,127.500,202.500,-421.500,,-15407,-3152,4712,-6,-7,-5,85,135,-281,0x20
206292948,-939.827,-192.272,287.432,-420.000,-490.000,-350.000,121.500,202.500,-415.500,,-15407,-3152,4712,-6,-7,-5,81,135,-277,0x20
206297498,-941.596,-195.932,293.532,-420.000,-350.000,-210.000,121.500,202.500,-415.500,,-15436,-3212,4812,-6,-5,-3,81,135,-277,0x18
206302852,-941.596,-195.932,293.532,-420.000,-350.000,-210.000,126.000,207.000,-426.000,,-15436,-3212,4812,-6,-5,-3,84,138,-284,0x20
206312813,-941.596,-195.932,293.532,-420.000,-350.000,-210.000,132.000,201.000,-427.500,,-15436,-3212,4812,-6,-5,-3,88,134,-285,0x20
206314266,-941.596,-195.932,293.532,-280.000,280.000,-560.000,132.000,201.000,-427.500,,-15436,-3212,4812,-4,4,-8,88,134,-285,0x10
206314450,-941.840,-200.019,280.356,-280.000,280.000,-560.000,132.000,201.000,-427.500,,-15440,-3279,4596,-4,4,-8,88,134,-285,0x08
206322623,-941.840,-200.019,280.356,-280.000,280.000,-560.000,120.000,207.000,-426.000,,-15440,-3279,4596,-4,4,-8,80,138,-284,0x20
206331087,-941.840,-200.019,280.356,350.000,840.000,-980.000,120.000,207.000,-426.000,,-15440,-3279,4596,5,12,-14,80,138,-284,0x10
206331270,-931.104,-192.516,289.811,350.000,840.000,-980.000,120.000,207.000,-426.000,,-15264,-3156,4751,5,12,-14,80,138,-284,0x08
206332533,-931.104,-192.516,289.811,350.000,840.000,-980.000,132.000,202.500,-426.000,,-15264,-3156,4751,5,12,-14,88,135,-284,0x20
206342474,-931.104,-192.516,289.811,350.000,840.000,-980.000,123.000,204.000,-423.000,,-15264,-3156,4751,5,12,-14,82,136,-282,0x20
206347971,-929.823,-191.235,279.624,-140.000,210.000,-840.000,123.000,204.000,-423.000,,-15243,-3135,4584,-2,3,-12,82,136,-282,0x18
206352388,-929.823,-191.235,279.624,-140.000,210.000,-840.000,132.000,199.500,-424.500,,-15243,-3135,4584,-2,3,-12,88,133,-283,0x20
206362336,-929.823,-191.235,279.624,-140.000,210.000,-840.000,130.500,201.000,-418.500,,-15243,-3135,4584,-2,3,-12,87,134,-279,0x20
206364862,-934.947,-190.137,290.177,-210.000,-70.000,-490.000,130.500,201.000,-418.500,,-15327,-3117,4757,-3,-1,-7,87,134,-279,0x18
206372240,-934.947,-190.137,290.177,-210.000,-70.000,-490.000,123.000,202.500,-426.000,,-15327,-3117,4757,-3,-1,-7,82,135,-284,0x20
206381648,-942.572,-198.372,289.811,-630.000,0.000,0.000,123.000,202.500,-426.000,,-15452,-3252,4751,-9,0,0,82,135,-284,0x18
206382133,-942.572,-198.372,289.811,-630.000,0.000,0.000,126.000,201.000,-427.500,,-15452,-3252,4751,-9,0,0,84,134,-285,0x20
206392068,-942.572,-198.372,289.811,-630.000,0.000,0.000,126.000,210.000,-432.000,,-15452,-3252,4751,-9,0,0,84,140,-288,0x20
206398508,-939.583,-200.019,289.628,-630.000,560.000,-280.000,126.000,210.000,-432.000,,-15403,-3279,4748,-9,8,-4,84,140,-288,0x18
206401971,-939.583,-200.019,289.628,-630.000,560.000,-280.000,121.500,202.500,-430.500,,-15403,-3279,4748,-9,8,-4,81,135,-287,0x20
206411917,-939.583,-200.019,289.628,-630.000,560.000,-280.000,120.000,195.000,-424.500,,-15403,-3279,4748,-9,8,-4,80,130,-283,0x20
206415266,-940.376,-193.980,283.040,-630.000,560.000,-560.000,120.000,195.000,-424.500,,-15416,-3180,4640,-9,8,-8,80,130,-283,0x18
206421700,-940.376,-193.980,283.040,-630.000,560.000,-560.000,124.500,207.000,-432.000,,-15416,-3180,4640,-9,8,-8,83,138,-288,0x20
206431648,-940.376,-193.980,283.040,-630.000,560.000,-560.000,124.500,207.000,-415.500,,-15416,-3180,4640,-9,8,-8,83,138,-277,0x20
206432139,-935.252,-189.161,277.855,-420.000,840.000,-980.000,124.500,207.000,-415.500,,-15332,-3101,4555,-6,12,-14,83,138,-277,0x18
206441529,-935.252,-189.161,277.855,-420.000,840.000,-980.000,127.500,198.000,-427.500,,-15332,-3101,4555,-6,12,-14,85,132,-285,0x20
206448914,-935.679,-189.161,281.576,-280.000,420.000,-910.000,127.500,198.000,-427.500,,-15339,-3101,4616,-4,6,-13,85,132,-285,0x18
206451433,-935.679,-189.161,281.576,-280.000,420.000,-910.000,126.000,202.500,-424.500,,-15339,-3101,4616,-4,6,-13,84,135,-283,0x20
206461377,-935.679,-189.161,281.576,-280.000,420.000,-910.000,126.000,204.000,-429.000,,-15339,-3101,4616,-4,6,-13,84,136,-286,0x20
206465807,-941.596,-192.821,286.029,-420.000,280.000,-700.000,126.000,204.000,-429.000,,-15436,-3161,4689,-6,4,-10,84,136,-286,0x18
206471310,-941.596,-192.821,286.029,-420.000,280.000,-700.000,123.000,199.500,-429.000,,-15436,-3161,4689,-6,4,-10,82,133,-286,0x20
206481123,-941.596,-192.821,286.029,-420.000,280.000,-700.000,121.500,198.000,-424.500,,-15436,-3161,4689,-6,4,-10,81,132,-283,0x20
206482559,-936.899,-196.359,292.251,-350.000,630.000,-560.000,121.500,198.000,-424.500,,-15359,-3219,4791,-5,9,-8,81,132,-283,0x18
206491026,-936.899,-196.359,292.251,-350.000,630.000,-560.000,124.500,201.000,-426.000,,-15359,-3219,4791,-5,9,-8,83,134,-284,0x20
206499485,-937.936,-196.664,289.872,-280.000,560.000,-560.000,124.500,201.000,-426.000,,-15376,-3224,4752,-4,8,-8,83,134,-284,0x18
206500932,-937.936,-196.664,289.872,-280.000,560.000,-560.000,121.500,201.000,-430.500,,-15376,-3224,4752,-4,8,-8,81,134,-287,0x20
206510885,-937.936,-196.664,289.872,-280.000,560.000,-560.000,127.500,202.500,-427.500,,-15376,-3224,4752,-4,8,-8,85,135,-285,0x20
206516247,-932.751,-195.871,285.968,-350.000,770.000,-560.000,127.500,202.500,-427.500,,-15291,-3211,4688,-5,11,-8,85,135,-285,0x18
206520807,-932.751,-195.871,285.968,-350.000,770.000,-560.000,132.000,210.000,-432.000,,-15291,-3211,4688,-5,11,-8,88,140,-288,0x20
206530762,-932.751,-195.871,285.968,-350.000,770.000,-560.000,129.000,204.000,-423.000,,-15291,-3211,4688,-5,11,-8,86,136,-282,0x20
206533142,-938.729,-197.152,281.088,-210.000,140.000,-560.000,129.000,204.000,-423.000,,-15389,-3232,4608,-3,2,-8,86,136,-282,0x18
206540681,-938.729,-197.152,281.088,-210.000,140.000,-560.000,123.000,201.000,-424.500,,-15389,-3232,4608,-3,2,-8,82,134,-283,0x20
206549963,-938.729,-196.664,281.515,0.000,-70.000,-560.000,123.000,201.000,-424.500,,-15389,-3224,4615,0,-1,-8,82,134,-283,0x18
206550583,-938.729,-196.664,281.515,0.000,-70.000,-560.000,132.000,204.000,-420.000,,-15389,-3224,4615,0,-1,-8,88,136,-280,0x20
206560409,-938.729,-196.664,281.515,0.000,-70.000,-560.000,121.500,205.500,-427.500,,-15389,-3224,4615,0,-1,-8,81,137,-285,0x20
206566721,-934.825,-193.248,283.528,0.000,-140.000,-280.000,121.500,205.500,-427.500,,-15325,-3168,4648,0,-2,-4,81,137,-285,0x18
206570322,-934.825,-193.248,283.528,0.000,-140.000,-280.000,127.500,202.500,-418.500,,-15325,-3168,4648,0,-2,-4,85,135,-279,0x20
206580286,-934.825,-193.248,283.528,0.000,-140.000,-280.000,129.000,210.000,-429.000,,-15325,-3168,4648,0,-2,-4,86,140,-286,0x20
206583613,-933.544,-195.200,286.029,-140.000,-70.000,-420.000,129.000,210.000,-429.000,,-15304,-3200,4689,-2,-1,-6,86,140,-286,0x18
206590195,-933.544,-195.200,286.029,-140.000,-70.000,-420.000,124.500,201.000,-432.000,,-15304,-3200,4689,-2,-1,-6,83,134,-288,0x20
206600019,-933.544,-195.200,286.029,-140.000,-70.000,-420.000,130.500,204.000,-435.000,,-15304,-3200,4689,-2,-1,-6,87,136,-290,0x20
206600375,-936.289,-195.932,285.236,-420.000,-140.000,-350.000,130.500,204.000,-435.000,,-15349,-3212,4676,-6,-2,-5,87,136,-290,0x18
206610177,-936.289,-195.932,285.236,-420.000,-140.000,-350.000,121.500,201.000,-430.500,,-15349,-3212,4676,-6,-2,-5,81,134,-287,0x20
206617166,-936.289,-195.932,285.236,-140.000,-350.000,-350.000,121.500,201.000,-430.500,,-15349,-3212,4676,-2,-5,-5,81,134,-287,0x10
206617349,-937.448,-191.113,287.493,-140.000,-350.000,-350.000,121.500,201.000,-430.500,,-15368,-3133,4713,-2,-5,-5,81,134,-287,0x08
206620115,-937.448,-191.113,287.493,-140.000,-350.000,-350.000,115.500,207.000,-433.500,,-15368,-3133,4713,-2,-5,-5,77,138,-289,0x20
206629929,-937.448,-191.113,287.493,-140.000,-350.000,-350.000,120.000,211.500,-430.500,,-15368,-3133,4713,-2,-5,-5,80,141,-287,0x20
206634080,-938.607,-191.967,284.748,-280.000,350.000,-420.000,120.000,211.500,-430.500,,-15387,-3147,4668,-4,5,-6,80,141,-287,0x18
206639845,-938.607,-191.967,284.748,-280.000,350.000,-420.000,121.500,199.500,-427.500,,-15387,-3147,4668,-4,5,-6,81,133,-285,0x20
206649794,-938.607,-191.967,284.748,-280.000,350.000,-420.000,121.500,205.500,-423.000,,-15387,-3147,4668,-4,5,-6,81,137,-282,0x20
206650852,-939.156,-196.420,283.467,-210.000,280.000,-630.000,121.500,205.500,-423.000,,-15396,-3220,4647,-3,4,-9,81,137,-282,0x18
206659719,-939.156,-196.420,283.467,-210.000,280.000,-630.000,129.000,193.500,-433.500,,-15396,-3220,4647,-3,4,-9,86,129,-289,0x20
206667767,-938.729,-195.871,286.029,-140.000,-140.000,-770.000,129.000,193.500,-433.500,,-15389,-3211,4689,-2,-2,-11,86,129,-289,0x18
206669605,-938.729,-195.871,286.029,-140.000,-140.000,-770.000,130.500,207.000,-426.000,,-15389,-3211,4689,-2,-2,-11,87,138,-284,0x20
206679548,-938.729,-195.871,286.029,-140.000,-140.000,-770.000,127.500,199.500,-426.000,,-15389,-3211,4689,-2,-2,-11,85,133,-284,0x20
206684520,-937.387,-195.383,283.955,-210.000,-350.000,-840.000,127.500,199.500,-426.000,,-15367,-3203,4655,-3,-5,-12,85,133,-284,0x18
206689476,-937.387,-195.383,283.955,-210.000,-350.000,-840.000,121.500,207.000,-427.500,,-15367,-3203,4655,-3,-5,-12,81,138,-285,0x20
206699281,-937.387,-195.383,283.955,-210.000,-350.000,-840.000,123.000,202.500,-420.000,,-15367,-3203,4655,-3,-5,-12,82,135,-280,0x20
206701415,-937.631,-194.224,286.212,-70.000,-210.000,-770.000,123.000,202.500,-420.000,,-15371,-3184,4692,-1,-3,-11,82,135,-280,0x18
206709195,-937.631,-194.224,286.212,-70.000,-210.000,-770.000,117.000,201.000,-426.000,,-15371,-3184,4692,-1,-3,-11,78,134,-284,0x20
206718199,-938.485,-193.492,289.201,350.000,-210.000,-490.000,117.000,201.000,-426.000,,-15385,-3172,4741,5,-3,-7,78,134,-284,0x18
206719091,-938.485,-193.492,289.201,350.000,-210.000,-490.000,121.500,201.000,-427.500,,-15385,-3172,4741,5,-3,-7,81,134,-285,0x20
206729027,-938.485,-193.492,289.201,350.000,-210.000,-490.000,126.000,211.500,-420.000,,-15385,-3172,4741,5,-3,-7,84,141,-280,0x20
206735063,-936.045,-195.017,290.421,-280.000,210.000,-770.000,126.000,211.500,-420.000,,-15345,-3197,4761,-4,3,-11,84,141,-280,0x18
206738948,-936.045,-195.017,290.421,-280.000,210.000,-770.000,124.500,196.500,-427.500,,-15345,-3197,4761,-4,3,-11,83,131,-285,0x20
206748895,-936.045,-195.017,290.421,-280.000,210.000,-770.000,123.000,201.000,-426.000,,-15345,-3197,4761,-4,3,-11,82,134,-284,0x20
206751823,-933.605,-194.712,294.447,-420.000,70.000,-490.000,123.000,201.000,-426.000,,-15305,-3192,4827,-6,1,-7,82,134,-284,0x18
206758791,-933.605,-194.712,294.447,-420.000,70.000,-490.000,133.500,196.500,-435.000,,-15305,-3192,4827,-6,1,-7,89,131,-290,0x20
206768739,-933.483,-195.688,294.264,-630.000,140.000,-700.000,129.000,201.000,-424.500,,-15303,-3208,4824,-9,2,-10,86,134,-283,0x38
206778633,-933.483,-195.688,294.264,-630.000,140.000,-700.000,121.500,199.500,-423.000,,-15303,-3208,4824,-9,2,-10,81,133,-282,0x20
206785475,-938.180,-192.272,292.068,-700.000,0.000,-350.000,121.500,199.500,-423.000,,-15380,-3152,4788,-10,0,-5,81,133,-282,0x18
206788552,-938.180,-192.272,292.068,-700.000,0.000,-350.000,129.000,207.000,-424.500,,-15380,-3152,4788,-10,0,-5,86,138,-283,0x20
206798355,-938.180,-192.272,292.068,-700.000,0.000,-350.000,121.500,214.500,-430.500,,-15380,-3152,4788,-10,0,-5,81,143,-287,0x20
206802363,-940.071,-191.784,288.408,-770.000,70.000,-210.000,121.500,214.500,-430.500,,-15411,-3144,4728,-11,1,-3,81,143,-287,0x18
206808387,-940.071,-191.784,288.408,-770.000,70.000,-210.000,124.500,195.000,-424.500,,-15411,-3144,4728,-11,1,-3,83,130,-283,0x20
206818199,-940.071,-191.784,288.408,-770.000,70.000,-210.000,123.000,201.000,-420.000,,-15411,-3144,4728,-11,1,-3,82,134,-280,0x20
206819096,-940.071,-191.784,288.408,-910.000,140.000,-350.000,123.000,201.000,-420.000,,-15411,-3144,4728,-13,2,-5,82,134,-280,0x10
206819280,-939.400,-197.396,286.761,-910.000,140.000,-350.000,123.000,201.000,-420.000,,-15400,-3236,4701,-13,2,-5,82,134,-280,0x08
206828121,-939.400,-197.396,286.761,-910.000,140.000,-350.000,124.500,210.000,-423.000,,-15400,-3236,4701,-13,2,-5,83,140,-282,0x20
206836040,-938.851,-196.908,285.968,-770.000,350.000,-770.000,124.500,210.000,-423.000,,-15391,-3228,4688,-11,5,-11,83,140,-282,0x18
206838009,-938.851,-196.908,285.968,-770.000,350.000,-770.000,127.500,207.000,-423.000,,-15391,-3228,4688,-11,5,-11,85,138,-282,0x20
206847953,-938.851,-196.908,285.968,-770.000,350.000,-770.000,133.500,204.000,-429.000,,-15391,-3228,4688,-11,5,-11,89,136,-286,0x20
206852772,-935.313,-193.492,287.188,-700.000,350.000,-560.000,133.500,204.000,-429.000,,-15333,-3172,4708,-10,5,-8,89,136,-286,0x18
206857850,-935.313,-193.492,287.188,-700.000,350.000,-560.000,121.500,198.000,-429.000,,-15333,-3172,4708,-10,5,-8,81,132,-286,0x20
206867813,-935.313,-193.492,287.188,-700.000,350.000,-560.000,127.500,202.500,-423.000,,-15333,-3172,4708,-10,5,-8,85,135,-282,0x20
206869671,-935.008,-190.869,284.504,-630.000,770.000,-560.000,127.500,202.500,-423.000,,-15328,-3129,4664,-9,11,-8,85,135,-282,0x18
206877738,-935.008,-190.869,284.504,-630.000,770.000,-560.000,118.500,204.000,-430.500,,-15328,-3129,4664,-9,11,-8,79,136,-287,0x20
206886472,-932.324,-194.712,286.944,-770.000,1120.000,-630.000,118.500,204.000,-430.500,,-15284,-3192,4704,-11,16,-9,79,136,-287,0x18
206887632,-932.324,-194.712,286.944,-770.000,1120.000,-630.000,129.000,195.000,-432.000,,-15284,-3192,4704,-11,16,-9,86,130,-288,0x20
206897446,-932.324,-194.712,286.944,-770.000,1120.000,-630.000,120.000,204.000,-430.500,,-15284,-3192,4704,-11,16,-9,80,136,-287,0x20
206903361,-935.740,-196.725,288.652,-980.000,1470.000,-770.000,120.000,204.000,-430.500,,-15340,-3225,4732,-14,21,-11,80,136,-287,0x18
206907363,-935.740,-196.725,288.652,-980.000,1470.000,-770.000,123.000,201.000,-427.500,,-15340,-3225,4732,-14,21,-11,82,134,-285,0x20
206917322,-935.740,-196.725,288.652,-980.000,1470.000,-770.000,123.000,198.000,-426.000,,-15340,-3225,4732,-14,21,-11,82,132,-284,0x20
206920130,-936.960,-196.908,290.360,-980.000,980.000,-490.000,123.000,198.000,-426.000,,-15360,-3228,4760,-14,14,-7,82,132,-284,0x18
206927240,-936.960,-196.908,290.360,-980.000,980.000,-490.000,124.500,202.500,-421.500,,-15360,-3228,4760,-14,14,-7,83,135,-281,0x20
206936917,-936.960,-194.468,288.896,-1050.000,910.000,-560.000,124.500,202.500,-421.500,,-15360,-3188,4736,-15,13,-8,83,135,-281,0x18
206937133,-936.960,-194.468,288.896,-1050.000,910.000,-560.000,120.000,205.500,-420.000,,-15360,-3188,4736,-15,13,-8,80,137,-280,0x20
206947084,-936.960,-194.468,288.896,-1050.000,910.000,-560.000,132.000,202.500,-423.000,,-15360,-3188,4736,-15,13,-8,88,135,-282,0x20
206953790,-938.668,-194.712,284.992,-1050.000,840.000,-420.000,132.000,202.500,-423.000,,-15388,-3192,4672,-15,12,-6,88,135,-282,0x18
206956991,-938.668,-194.712,284.992,-1050.000,840.000,-420.000,124.500,198.000,-426.000,,-15388,-3192,4672,-15,12,-6,83,132,-284,0x20
206966941,-938.668,-194.712,284.992,-1050.000,840.000,-420.000,124.500,199.500,-427.500,,-15388,-3192,4672,-15,12,-6,83,133,-285,0x20
206970545,-938.668,-194.712,284.992,-1190.000,980.000,-560.000,124.500,199.500,-427.500,,-15388,-3192,4672,-17,14,-8,83,133,-285,0x10
206970730,-940.620,-196.176,283.040,-1190.000,980.000,-560.000,124.500,199.500,-427.500,,-15420,-3216,4640,-17,14,-8,83,133,-285,0x08
206976743,-940.620,-196.176,283.040,-1190.000,980.000,-560.000,132.000,198.000,-430.500,,-15420,-3216,4640,-17,14,-8,88,132,-287,0x20
206986700,-940.620,-196.176,283.040,-1190.000,980.000,-560.000,118.500,207.000,-427.500,,-15420,-3216,4640,-17,14,-8,79,138,-285,0x20
206987461,-939.705,-196.237,282.491,-1260.000,490.000,-630.000,118.500,207.000,-427.500,,-15405,-3217,4631,-18,7,-9,79,138,-285,0x18
206996609,-939.705,-196.237,282.491,-1260.000,490.000,-630.000,123.000,201.000,-418.500,,-15405,-3217,4631,-18,7,-9,82,134,-279,0x20
207004272,-936.167,-197.457,285.236,-1260.000,70.000,-840.000,123.000,201.000,-418.500,,-15347,-3237,4676,-18,1,-12,82,134,-279,0x18
207006540,-936.167,-197.457,285.236,-1260.000,70.000,-840.000,121.500,204.000,-429.000,,-15347,-3237,4676,-18,1,-12,81,136,-286,0x20
207016489,-936.167,-197.457,285.236,-1260.000,70.000,-840.000,135.000,202.500,-423.000,,-15347,-3237,4676,-18,1,-12,90,135,-282,0x20
207021055,-933.056,-196.176,285.724,-1330.000,280.000,-910.000,135.000,202.500,-423.000,,-15296,-3216,4684,-19,4,-13,90,135,-282,0x18
207026402,-933.056,-196.176,285.724,-1330.000,280.000,-910.000,129.000,199.500,-423.000,,-15296,-3216,4684,-19,4,-13,86,133,-282,0x20
207036216,-933.056,-196.176,285.724,-1330.000,280.000,-910.000,126.000,198.000,-424.500,,-15296,-3216,4684,-19,4,-13,84,132,-283,0x20
207037923,-932.324,-195.383,285.785,-1260.000,1050.000,-910.000,126.000,198.000,-424.500,,-15284,-3203,4685,-18,15,-13,84,132,-283,0x18
207046110,-932.324,-195.383,285.785,-1260.000,1050.000,-910.000,117.000,202.500,-421.500,,-15284,-3203,4685,-18,15,-13,78,135,-281,0x20
207054720,-935.008,-190.320,285.968,-1330.000,1260.000,-350.000,117.000,202.500,-421.500,,-15328,-3120,4688,-19,18,-5,78,135,-281,0x18
207056026,-935.008,-190.320,285.968,-1330.000,1260.000,-350.000,126.000,204.000,-432.000,,-15328,-3120,4688,-19,18,-5,84,136,-288,0x20
207065972,-935.008,-190.320,285.968,-1330.000,1260.000,-350.000,129.000,201.000,-417.000,,-15328,-3120,4688,-19,18,-5,86,134,-278,0x20
207071617,-940.559,-195.688,285.175,-980.000,1120.000,-420.000,129.000,201.000,-417.000,,-15419,-3208,4675,-14,16,-6,86,134,-278,0x18
207075897,-940.559,-195.688,285.175,-980.000,1120.000,-420.000,123.000,195.000,-427.500,,-15419,-3208,4675,-14,16,-6,82,130,-285,0x20
207085838,-940.559,-195.688,285.175,-980.000,1120.000,-420.000,127.500,198.000,-430.500,,-15419,-3208,4675,-14,16,-6,85,132,-287,0x20
207088374,-942.023,-198.433,291.824,-1190.000,700.000,-560.000,127.500,198.000,-430.500,,-15443,-3253,4784,-17,10,-8,85,132,-287,0x18
207095753,-942.023,-198.433,291.824,-1190.000,700.000,-560.000,121.500,204.000,-423.000,,-15443,-3253,4784,-17,10,-8,81,136,-282,0x20
207105295,-945.439,-200.507,279.441,-1400.000,1120.000,-840.000,121.500,204.000,-423.000,,-15499,-3287,4581,-20,16,-12,81,136,-282,0x18
207105646,-945.439,-200.507,279.441,-1400.000,1120.000,-840.000,124.500,199.500,-424.500,,-15499,-3287,4581,-20,16,-12,83,133,-283,0x20
207115485,-945.439,-200.507,279.441,-1400.000,1120.000,-840.000,126.000,208.500,-427.500,,-15499,-3287,4581,-20,16,-12,84,139,-285,0x20
207122057,-941.352,-195.200,284.260,-490.000,1400.000,-910.000,126.000,208.500,-427.500,,-15432,-3200,4660,-7,20,-13,84,139,-285,0x18
207125401,-941.352,-195.200,284.260,-490.000,1400.000,-910.000,118.500,196.500,-433.500,,-15432,-3200,4660,-7,20,-13,79,131,-289,0x20
207135357,-941.352,-195.200,284.260,-490.000,1400.000,-910.000,123.000,207.000,-427.500,,-15432,-3200,4660,-7,20,-13,82,138,-285,0x20
207138861,-928.420,-192.028,278.465,-1190.000,1540.000,-490.000,123.000,207.000,-427.500,,-15220,-3148,4565,-17,22,-7,82,138,-285,0x18
207145176,-928.420,-192.028,278.465,-1190.000,1540.000,-490.000,130.500,199.500,-423.000,,-15220,-3148,4565,-17,22,-7,87,133,-282,0x20
207155123,-928.420,-192.028,278.465,-1190.000,1540.000,-490.000,126.000,202.500,-424.500,,-15220,-3148,4565,-17,22,-7,84,135,-283,0x20
207155759,-935.252,-194.529,278.221,-350.000,-910.000,-280.000,126.000,202.500,-424.500,,-15332,-3189,4561,-5,-13,-4,84,135,-283,0x18
207165025,-935.252,-194.529,278.221,-350.000,-910.000,-280.000,126.000,199.500,-427.500,,-15332,-3189,4561,-5,-13,-4,84,133,-285,0x20
207172544,-940.193,-196.481,296.216,-630.000,-910.000,-280.000,126.000,199.500,-427.500,,-15413,-3221,4856,-9,-13,-4,84,133,-285,0x18
207174919,-940.193,-196.481,296.216,-630.000,-910.000,-280.000,115.500,195.000,-424.500,,-15413,-3221,4856,-9,-13,-4,77,130,-283,0x20
207184875,-940.193,-196.481,296.216,-630.000,-910.000,-280.000,129.000,208.500,-424.500,,-15413,-3221,4856,-9,-13,-4,86,139,-283,0x20
207189422,-933.605,-201.544,284.016,-1540.000,910.000,-560.000,129.000,208.500,-424.500,,-15305,-3304,4656,-22,13,-8,86,139,-283,0x18
207194790,-933.605,-201.544,284.016,-1540.000,910.000,-560.000,130.500,198.000,-433.500,,-15305,-3304,4656,-22,13,-8,87,132,-289,0x20
207204611,-933.605,-201.544,284.016,-1540.000,910.000,-560.000,126.000,193.500,-429.000,,-15305,-3304,4656,-22,13,-8,84,129,-286,0x20
207206182,-936.960,-190.564,281.576,-1330.000,1260.000,-350.000,126.000,193.500,-429.000,,-15360,-3124,4616,-19,18,-5,84,129,-286,0x18
207214639,-936.960,-190.564,281.576,-1330.000,1260.000,-350.000,124.500,205.500,-424.500,,-15360,-3124,4616,-19,18,-5,83,137,-283,0x20
207222986,-939.583,-190.564,281.332,-770.000,1190.000,-700.000,124.500,205.500,-424.500,,-15403,-3124,4612,-11,17,-10,83,137,-283,0x18
207224445,-939.583,-190.564,281.332,-770.000,1190.000,-700.000,121.500,199.500,-421.500,,-15403,-3124,4612,-11,17,-10,81,133,-281,0x20
207234395,-939.583,-190.564,281.332,-770.000,1190.000,-700.000,129.000,205.500,-424.500,,-15403,-3124,4612,-11,17,-10,86,137,-283,0x20
207239906,-942.877,-194.651,281.271,-700.000,1330.000,-1120.000,129.000,205.500,-424.500,,-15457,-3191,4611,-10,19,-16,86,137,-283,0x18
207244441,-942.877,-194.651,281.271,-700.000,1330.000,-1120.000,118.500,204.000,-435.000,,-15457,-3191,4611,-10,19,-16,79,136,-290,0x20
207254390,-942.877,-194.651,281.271,-700.000,1330.000,-1120.000,129.000,196.500,-430.500,,-15457,-3191,4611,-10,19,-16,86,131,-287,0x20
207256653,-940.437,-196.481,283.284,-980.000,1400.000,-1120.000,129.000,196.500,-430.500,,-15417,-3221,4644,-14,20,-16,86,131,-287,0x18
207264315,-940.437,-196.481,283.284,-980.000,1400.000,-1120.000,117.000,192.000,-414.000,,-15417,-3221,4644,-14,20,-16,78,128,-276,0x20
207273457,-939.644,-198.860,285.236,-1260.000,1400.000,-840.000,117.000,192.000,-414.000,,-15404,-3260,4676,-18,20,-12,78,128,-276,0x18
207274213,-939.644,-198.860,285.236,-1260.000,1400.000,-840.000,130.500,201.000,-423.000,,-15404,-3260,4676,-18,20,-12,87,134,-282,0x20
207284164,-939.644,-198.860,285.236,-1260.000,1400.000,-840.000,123.000,201.000,-429.000,,-15404,-3260,4676,-18,20,-12,82,134,-286,0x20
207290332,-940.132,-202.764,285.724,-1190.000,1050.000,-770.000,123.000,201.000,-429.000,,-15412,-3324,4684,-17,15,-11,82,134,-286,0x18
207294075,-940.132,-202.764,285.724,-1190.000,1050.000,-770.000,118.500,211.500,-417.000,,-15412,-3324,4684,-17,15,-11,79,141,-278,0x20
207303892,-940.132,-202.764,285.724,-1190.000,1050.000,-770.000,127.500,204.000,-436.500,,-15412,-3324,4684,-17,15,-11,85,136,-291,0x20
207307227,-937.021,-199.592,281.515,-1330.000,770.000,-770.000,127.500,204.000,-436.500,,-15361,-3272,4615,-19,11,-11,85,136,-291,0x18
207313796,-937.021,-199.592,281.515,-1330.000,770.000,-770.000,132.000,199.500,-426.000,,-15361,-3272,4615,-19,11,-11,88,133,-284,0x20
207323739,-937.021,-199.592,281.515,-1330.000,770.000,-770.000,132.000,204.000,-418.500,,-15361,-3272,4615,-19,11,-11,88,136,-279,0x20
207324095,-935.008,-193.980,277.916,-1120.000,490.000,-980.000,132.000,204.000,-418.500,,-15328,-3180,4556,-16,7,-14,88,136,-279,0x18
207333625,-935.008,-193.980,277.916,-1120.000,490.000,-980.000,121.500,205.500,-430.500,,-15328,-3180,4556,-16,7,-14,81,137,-287,0x20
207340873,-933.239,-194.956,277.977,-840.000,350.000,-840.000,121.500,205.500,-430.500,,-15299,-3196,4557,-12,5,-12,81,137,-287,0x18
207343529,-933.239,-194.956,277.977,-840.000,350.000,-840.000,124.500,210.000,-420.000,,-15299,-3196,4557,-12,5,-12,83,140,-280,0x20
207353471,-933.239,-194.956,277.977,-840.000,350.000,-840.000,124.500,199.500,-429.000,,-15299,-3196,4557,-12,5,-12,83,133,-286,0x20
207357630,-932.141,-196.664,282.125,-840.000,490.000,-210.000,124.500,199.500,-429.000,,-15281,-3224,4625,-12,7,-3,83,133,-286,0x18
207363390,-932.141,-196.664,282.125,-840.000,490.000,-210.000,133.500,201.000,-426.000,,-15281,-3224,4625,-12,7,-3,89,134,-284,0x20
207373336,-932.141,-196.664,282.125,-840.000,490.000,-210.000,126.000,201.000,-430.500,,-15281,-3224,4625,-12,7,-3,84,134,-287,0x20
207374502,-934.276,-200.141,282.979,-980.000,840.000,-280.000,126.000,201.000,-430.500,,-15316,-3281,4639,-14,12,-4,84,134,-287,0x18
207383218,-934.276,-200.141,282.979,-980.000,840.000,-280.000,124.500,207.000,-432.000,,-15316,-3281,4639,-14,12,-4,83,138,-288,0x20
207391278,-938.363,-199.104,279.380,-1120.000,1120.000,-280.000,124.500,207.000,-432.000,,-15383,-3264,4580,-16,16,-4,83,138,-288,0x18
207393115,-938.363,-199.104,279.380,-1120.000,1120.000,-280.000,129.000,199.500,-426.000,,-15383,-3264,4580,-16,16,-4,86,133,-284,0x20
207402928,-938.363,-199.104,279.380,-1120.000,1120.000,-280.000,132.000,204.000,-424.500,,-15383,-3264,4580,-16,16,-4,88,136,-283,0x20
207408169,-940.132,-195.932,282.979,-1050.000,1120.000,-420.000,132.000,204.000,-424.500,,-15412,-3212,4639,-15,16,-6,88,136,-283,0x18
207412865,-940.132,-195.932,282.979,-1050.000,1120.000,-420.000,124.500,207.000,-424.500,,-15412,-3212,4639,-15,16,-6,83,138,-283,0x20
207422813,-940.132,-195.932,282.979,-1050.000,1120.000,-420.000,133.500,207.000,-424.500,,-15412,-3212,4639,-15,16,-6,89,138,-283,0x20
207424941,-938.424,-198.372,279.929,-1330.000,1190.000,-630.000,133.500,207.000,-424.500,,-15384,-3252,4589,-19,17,-9,89,138,-283,0x18
207432732,-938.424,-198.372,279.929,-1330.000,1190.000,-630.000,120.000,201.000,-429.000,,-15384,-3252,4589,-19,17,-9,80,134,-286,0x20
207441743,-942.084,-197.579,276.147,-1190.000,630.000,-700.000,120.000,201.000,-429.000,,-15444,-3239,4527,-17,9,-10,80,134,-286,0x18
207442634,-942.084,-197.579,276.147,-1190.000,630.000,-700.000,142.500,196.500,-424.500,,-15444,-3239,4527,-17,9,-10,95,131,-283,0x20
207452597,-942.084,-197.579,276.147,-1190.000,630.000,-700.000,120.000,204.000,-420.000,,-15444,-3239,4527,-17,9,-10,80,136,-280,0x20
207458639,-940.925,-197.884,279.136,-1120.000,700.000,-770.000,120.000,204.000,-420.000,,-15425,-3244,4576,-16,10,-11,80,136,-280,0x18
207462507,-940.925,-197.884,279.136,-1120.000,700.000,-770.000,127.500,199.500,-435.000,,-15425,-3244,4576,-16,10,-11,85,133,-290,0x20
207472322,-940.925,-197.884,279.136,-1120.000,700.000,-770.000,126.000,195.000,-423.000,,-15425,-3244,4576,-16,10,-11,84,130,-282,0x20
207475401,-939.705,-194.895,277.489,-1330.000,420.000,-630.000,126.000,195.000,-423.000,,-15405,-3195,4549,-19,6,-9,84,130,-282,0x18
207482240,-939.705,-194.895,277.489,-1330.000,420.000,-630.000,126.000,196.500,-427.500,,-15405,-3195,4549,-19,6,-9,84,131,-285,0x20
207492187,-939.705,-194.895,277.489,-1330.000,420.000,-630.000,115.500,199.500,-421.500,,-15405,-3195,4549,-19,6,-9,77,133,-281,0x20
207492544,-941.047,-195.993,280.844,-910.000,140.000,-1050.000,115.500,199.500,-421.500,,-15427,-3213,4604,-13,2,-15,77,133,-281,0x18
207502069,-941.047,-195.993,280.844,-910.000,140.000,-1050.000,132.000,199.500,-421.500,,-15427,-3213,4604,-13,2,-15,88,133,-281,0x20
207509049,-939.095,-200.141,285.419,-1050.000,280.000,-1330.000,132.000,199.500,-421.500,,-15395,-3281,4679,-15,4,-19,88,133,-281,0x18
207511974,-939.095,-200.141,285.419,-1050.000,280.000,-1330.000,126.000,187.500,-427.500,,-15395,-3281,4679,-15,4,-19,84,125,-285,0x20
207521918,-939.095,-200.141,285.419,-1050.000,280.000,-1330.000,124.500,196.500,-429.000,,-15395,-3281,4679,-15,4,-19,83,131,-286,0x20
207525940,-937.021,-201.117,286.700,-1330.000,700.000,-1330.000,124.500,196.500,-429.000,,-15361,-3297,4700,-19,10,-19,83,131,-286,0x18
207531841,-937.021,-201.117,286.700,-1330.000,700.000,-1330.000,121.500,199.500,-417.000,,-15361,-3297,4700,-19,10,-19,81,133,-278,0x20
207541783,-937.021,-201.117,286.700,-1330.000,700.000,-1330.000,124.500,192.000,-424.500,,-15361,-3297,4700,-19,10,-19,83,128,-283,0x20
207542813,-935.496,-199.897,285.297,-1540.000,210.000,-840.000,124.500,192.000,-424.500,,-15336,-3277,4677,-22,3,-12,83,128,-283,0x18
207551663,-935.496,-199.897,285.297,-1540.000,210.000,-840.000,118.500,199.500,-427.500,,-15336,-3277,4677,-22,3,-12,79,133,-285,0x20
207559587,-937.265,-195.932,285.053,-1540.000,350.000,-840.000,118.500,199.500,-427.500,,-15365,-3212,4673,-22,5,-12,79,133,-285,0x18
207561567,-937.265,-195.932,285.053,-1540.000,350.000,-840.000,130.500,199.500,-417.000,,-15365,-3212,4673,-22,5,-12,87,133,-278,0x20
207571512,-937.265,-195.932,285.053,-1540.000,350.000,-840.000,130.500,198.000,-423.000,,-15365,-3212,4673,-22,5,-12,87,132,-282,0x20
207576346,-937.265,-195.932,285.053,-1330.000,420.000,-980.000,130.500,198.000,-423.000,,-15365,-3212,4673,-19,6,-14,87,132,-282,0x10
207576529,-938.424,-194.529,282.308,-1330.000,420.000,-980.000,130.500,198.000,-423.000,,-15384,-3189,4628,-19,6,-14,87,132,-282,0x08
207581321,-938.424,-194.529,282.308,-1330.000,420.000,-980.000,127.500,205.500,-426.000,,-15384,-3189,4628,-19,6,-14,85,137,-284,0x20
207591258,-938.424,-194.529,282.308,-1330.000,420.000,-980.000,130.500,193.500,-435.000,,-15384,-3189,4628,-19,6,-14,87,129,-290,0x20
207593233,-942.328,-198.860,282.735,-1190.000,420.000,-840.000,130.500,193.500,-435.000,,-15448,-3260,4635,-17,6,-12,87,129,-290,0x18
207601159,-942.328,-198.860,282.735,-1190.000,420.000,-840.000,120.000,193.500,-420.000,,-15448,-3260,4635,-17,6,-12,80,129,-280,0x20
207610025,-944.219,-203.008,277.855,-700.000,70.000,-910.000,120.000,193.500,-420.000,,-15479,-3328,4555,-10,1,-13,80,129,-280,0x18
207611068,-944.219,-203.008,277.855,-700.000,70.000,-910.000,118.500,195.000,-426.000,,-15479,-3328,4555,-10,1,-13,79,130,-284,0x20
207621025,-944.219,-203.008,277.855,-700.000,70.000,-910.000,124.500,196.500,-424.500,,-15479,-3328,4555,-10,1,-13,83,131,-283,0x20
207626923,-935.557,-198.616,287.188,-210.000,-490.000,-1050.000,124.500,196.500,-424.500,,-15337,-3256,4708,-3,-7,-15,83,131,-283,0x18
207630941,-935.557,-198.616,287.188,-210.000,-490.000,-1050.000,118.500,207.000,-430.500,,-15337,-3256,4708,-3,-7,-15,79,138,-287,0x20
207640762,-935.557,-198.616,287.188,-210.000,-490.000,-1050.000,127.500,198.000,-426.000,,-15337,-3256,4708,-3,-7,-15,85,132,-284,0x20
207643681,-929.640,-196.420,280.112,-1610.000,770.000,-560.000,127.500,198.000,-426.000,,-15240,-3220,4592,-23,11,-8,85,132,-284,0x18
207650655,-929.640,-196.420,280.112,-1610.000,770.000,-560.000,129.000,192.000,-429.000,,-15240,-3220,4592,-23,11,-8,86,128,-286,0x20
207660609,-937.204,-197.396,276.940,-1680.000,560.000,-350.000,126.000,196.500,-427.500,,-15364,-3236,4540,-24,8,-5,84,131,-285,0x38
207670503,-937.204,-197.396,276.940,-1680.000,560.000,-350.000,123.000,196.500,-418.500,,-15364,-3236,4540,-24,8,-5,82,131,-279,0x20
207677345,-941.779,-200.873,278.404,-1680.000,560.000,-560.000,123.000,196.500,-418.500,,-15439,-3293,4564,-24,8,-8,82,131,-279,0x18
207680404,-941.779,-200.873,278.404,-1680.000,560.000,-560.000,130.500,201.000,-427.500,,-15439,-3293,4564,-24,8,-8,87,134,-285,0x20
207690360,-941.779,-200.873,278.404,-1680.000,560.000,-560.000,126.000,199.500,-426.000,,-15439,-3293,4564,-24,8,-8,84,133,-284,0x20
207694135,-941.779,-200.873,278.404,-1610.000,910.000,-1050.000,126.000,199.500,-426.000,,-15439,-3293,4564,-23,13,-15,84,133,-284,0x10
207694319,-942.084,-198.677,277.855,-1610.000,910.000,-1050.000,126.000,199.500,-426.000,,-15444,-3257,4555,-23,13,-15,84,133,-284,0x08
207700197,-942.084,-198.677,277.855,-1610.000,910.000,-1050.000,132.000,196.500,-424.500,,-15444,-3257,4555,-23,13,-15,88,131,-283,0x20
207710160,-942.084,-198.677,277.855,-1610.000,910.000,-1050.000,126.000,202.500,-426.000,,-15444,-3257,4555,-23,13,-15,84,135,-284,0x20
207711068,-935.801,-197.640,278.892,-1470.000,1050.000,-560.000,126.000,202.500,-426.000,,-15341,-3240,4572,-21,15,-8,84,135,-284,0x18
207720075,-935.801,-197.640,278.892,-1470.000,1050.000,-560.000,124.500,198.000,-430.500,,-15341,-3240,4572,-21,15,-8,83,132,-287,0x20
207727879,-933.971,-200.568,278.648,-1470.000,1050.000,-280.000,124.500,198.000,-430.500,,-15311,-3288,4568,-21,15,-4,83,132,-287,0x18
207729996,-933.971,-200.568,278.648,-1470.000,1050.000,-280.000,126.000,199.500,-429.000,,-15311,-3288,4568,-21,15,-4,84,133,-286,0x20
207739938,-933.971,-200.568,278.648,-1470.000,1050.000,-280.000,126.000,193.500,-424.500,,-15311,-3288,4568,-21,15,-4,84,129,-283,0x20
207744639,-935.740,-202.825,278.404,-1540.000,1330.000,-350.000,126.000,193.500,-424.500,,-15340,-3325,4564,-22,19,-5,84,129,-283,0x18
207749852,-935.740,-202.825,278.404,-1540.000,1330.000,-350.000,132.000,199.500,-427.500,,-15340,-3325,4564,-22,19,-5,88,133,-285,0x20
207759660,-935.740,-202.825,278.404,-1540.000,1330.000,-350.000,127.500,199.500,-429.000,,-15340,-3325,4564,-22,19,-5,85,133,-286,0x20
207761527,-939.217,-202.520,277.367,-1610.000,1050.000,-630.000,127.500,199.500,-429.000,,-15397,-3320,4547,-23,15,-9,85,133,-286,0x18
207769584,-939.217,-202.520,277.367,-1610.000,1050.000,-630.000,115.500,196.500,-424.500,,-15397,-3320,4547,-23,15,-9,77,131,-283,0x20
207778311,-940.193,-200.629,276.025,-1540.000,1120.000,-980.000,115.500,196.500,-424.500,,-15413,-3289,4525,-22,16,-14,77,131,-283,0x18
207779470,-940.193,-200.629,276.025,-1540.000,1120.000,-980.000,124.500,199.500,-426.000,,-15413,-3289,4525,-22,16,-14,83,133,-284,0x20
207789417,-940.193,-200.629,276.025,-1540.000,1120.000,-980.000,132.000,198.000,-433.500,,-15413,-3289,4525,-22,16,-14,88,132,-289,0x20
207795194,-940.864,-201.544,274.256,-1260.000,1190.000,-980.000,132.000,198.000,-433.500,,-15424,-3304,4496,-18,17,-14,88,132,-289,0x18
207799341,-940.864,-201.544,274.256,-1260.000,1190.000,-980.000,123.000,195.000,-427.500,,-15424,-3304,4496,-18,17,-14,82,130,-285,0x20
207809279,-940.864,-201.544,274.256,-1260.000,1190.000,-980.000,124.500,198.000,-433.500,,-15424,-3304,4496,-18,17,-14,83,132,-289,0x20
207811954,-939.705,-202.764,275.171,-910.000,840.000,-910.000,124.500,198.000,-433.500,,-15405,-3324,4511,-13,12,-13,83,132,-289,0x18
207819195,-939.705,-202.764,275.171,-910.000,840.000,-910.000,118.500,195.000,-427.500,,-15405,-3324,4511,-13,12,-13,79,130,-285,0x20
207828876,-935.008,-203.069,275.232,-1050.000,1050.000,-840.000,118.500,195.000,-427.500,,-15328,-3329,4512,-15,15,-12,79,130,-285,0x18
207829093,-935.008,-203.069,275.232,-1050.000,1050.000,-840.000,136.500,199.500,-427.500,,-15328,-3329,4512,-15,15,-12,91,133,-285,0x20
207839028,-935.008,-203.069,275.232,-1050.000,1050.000,-840.000,127.500,199.500,-415.500,,-15328,-3329,4512,-15,15,-12,85,133,-277,0x20
207845604,-936.716,-202.032,275.415,-1190.000,770.000,-1260.000,127.500,199.500,-415.500,,-15356,-3312,4515,-17,11,-18,85,133,-277,0x18
207848932,-936.716,-202.032,275.415,-1190.000,770.000,-1260.000,126.000,192.000,-426.000,,-15356,-3312,4515,-17,11,-18,84,128,-284,0x20
207858739,-936.716,-202.032,275.415,-1190.000,770.000,-1260.000,126.000,201.000,-423.000,,-15356,-3312,4515,-17,11,-18,84,134,-282,0x20
207862491,-937.875,-202.947,274.927,-980.000,-350.000,-910.000,126.000,201.000,-423.000,,-15375,-3327,4507,-14,-5,-13,84,134,-282,0x18
207868656,-937.875,-202.947,274.927,-980.000,-350.000,-910.000,124.500,205.500,-426.000,,-15375,-3327,4507,-14,-5,-13,83,137,-284,0x20
207878739,-937.875,-202.947,274.927,-980.000,-350.000,-910.000,118.500,198.000,-420.000,,-15375,-3327,4507,-14,-5,-13,79,132,-280,0x20
207879365,-940.864,-200.751,281.576,-1680.000,420.000,-490.000,118.500,198.000,-420.000,,-15424,-3291,4616,-24,6,-7,79,132,-280,0x18
207888623,-940.864,-200.751,281.576,-1680.000,420.000,-490.000,123.000,205.500,-429.000,,-15424,-3291,4616,-24,6,-7,82,137,-286,0x20
207896143,-944.280,-206.241,270.596,-1050.000,490.000,-1190.000,123.000,205.500,-429.000,,-15480,-3381,4436,-15,7,-17,82,137,-286,0x18
207898529,-944.280,-206.241,270.596,-1050.000,490.000,-1190.000,132.000,204.000,-418.500,,-15480,-3381,4436,-15,7,-17,88,136,-279,0x20
207908469,-944.280,-206.241,270.596,-1050.000,490.000,-1190.000,121.500,195.000,-420.000,,-15480,-3381,4436,-15,7,-17,81,130,-280,0x20
207912898,-944.280,-206.241,270.596,-980.000,0.000,-1400.000,121.500,195.000,-420.000,,-15480,-3381,4436,-14,0,-20,81,130,-280,0x10
207913081,-940.132,-199.653,274.317,-980.000,0.000,-1400.000,121.500,195.000,-420.000,,-15412,-3273,4497,-14,0,-20,81,130,-280,0x08
207918429,-940.132,-199.653,274.317,-980.000,0.000,-1400.000,121.500,205.500,-424.500,,-15412,-3273,4497,-14,0,-20,81,137,-283,0x20
207928249,-940.132,-199.653,274.317,-980.000,0.000,-1400.000,127.500,198.000,-430.500,,-15412,-3273,4497,-14,0,-20,85,132,-287,0x20
207929819,-935.923,-197.945,275.232,-980.000,0.000,-1260.000,127.500,198.000,-430.500,,-15343,-3245,4512,-14,0,-18,85,132,-287,0x18
207938162,-935.923,-197.945,275.232,-980.000,0.000,-1260.000,124.500,190.500,-421.500,,-15343,-3245,4512,-14,0,-18,83,127,-281,0x20
207946637,-934.581,-198.616,285.480,-770.000,-1050.000,-630.000,124.500,190.500,-421.500,,-15321,-3256,4680,-11,-15,-9,83,127,-281,0x18
207948067,-934.581,-198.616,285.480,-770.000,-1050.000,-630.000,129.000,195.000,-420.000,,-15321,-3256,4680,-11,-15,-9,86,130,-280,0x20
207958028,-934.581,-198.616,285.480,-770.000,-1050.000,-630.000,124.500,201.000,-427.500,,-15321,-3256,4680,-11,-15,-9,83,134,-285,0x20
207963397,-936.533,-203.191,280.295,-1330.000,-840.000,-700.000,124.500,201.000,-427.500,,-15353,-3331,4595,-19,-12,-10,83,134,-285,0x18
207967935,-936.533,-203.191,280.295,-1330.000,-840.000,-700.000,118.500,195.000,-427.500,,-15353,-3331,4595,-19,-12,-10,79,130,-285,0x20
207977894,-936.533,-203.191,280.295,-1330.000,-840.000,-700.000,133.500,193.500,-420.000,,-15353,-3331,4595,-19,-12,-10,89,129,-280,0x20
207980274,-933.971,-203.191,271.755,-1330.000,-490.000,-840.000,133.500,193.500,-420.000,,-15311,-3331,4455,-19,-7,-12,89,129,-280,0x18
207987797,-933.971,-203.191,271.755,-1330.000,-490.000,-840.000,129.000,196.500,-420.000,,-15311,-3331,4455,-19,-7,-12,86,131,-280,0x20
207997075,-940.864,-200.812,266.753,-1050.000,-700.000,-840.000,129.000,196.500,-420.000,,-15424,-3292,4373,-15,-10,-12,86,131,-280,0x18
207997695,-940.864,-200.812,266.753,-1050.000,-700.000,-840.000,124.500,195.000,-429.000,,-15424,-3292,4373,-15,-10,-12,83,130,-286,0x20
208007515,-940.864,-200.812,266.753,-1050.000,-700.000,-840.000,133.500,198.000,-423.000,,-15424,-3292,4373,-15,-10,-12,89,132,-282,0x20
208013945,-942.633,-197.457,272.548,-140.000,-490.000,-910.000,133.500,198.000,-423.000,,-15453,-3237,4468,-2,-7,-13,89,132,-282,0x18
208017417,-942.633,-197.457,272.548,-140.000,-490.000,-910.000,121.500,189.000,-427.500,,-15453,-3237,4468,-2,-7,-13,81,126,-285,0x20
208027375,-942.633,-197.457,272.548,-140.000,-490.000,-910.000,126.000,189.000,-420.000,,-15453,-3237,4468,-2,-7,-13,84,126,-280,0x20
208030705,-940.559,-206.241,274.927,-140.000,490.000,-1330.000,126.000,189.000,-420.000,,-15419,-3381,4507,-2,7,-19,84,126,-280,0x18
208037290,-940.559,-206.241,274.927,-140.000,490.000,-1330.000,124.500,190.500,-423.000,,-15419,-3381,4507,-2,7,-19,83,127,-282,0x20
208047124,-940.559,-206.241,274.927,-140.000,490.000,-1330.000,132.000,196.500,-426.000,,-15419,-3381,4507,-2,7,-19,88,131,-284,0x20
208047616,-936.228,-207.705,275.659,-630.000,840.000,-1260.000,132.000,196.500,-426.000,,-15348,-3405,4519,-9,12,-18,88,131,-284,0x18
208057156,-936.228,-207.705,275.659,-630.000,840.000,-1260.000,124.500,189.000,-424.500,,-15348,-3405,4519,-9,12,-18,83,126,-283,0x20
208064424,-935.923,-207.400,276.696,-350.000,280.000,-700.000,124.500,189.000,-424.500,,-15343,-3400,4536,-5,4,-10,83,126,-283,0x18
208066955,-935.923,-207.400,276.696,-350.000,280.000,-700.000,127.500,192.000,-424.500,,-15343,-3400,4536,-5,4,-10,85,128,-283,0x20
208076899,-935.923,-207.400,276.696,-350.000,280.000,-700.000,123.000,192.000,-427.500,,-15343,-3400,4536,-5,4,-10,82,128,-285,0x20
208081195,-937.631,-203.557,280.173,-490.000,210.000,-350.000,123.000,192.000,-427.500,,-15371,-3337,4593,-7,3,-5,82,128,-285,0x18
208086808,-937.631,-203.557,280.173,-490.000,210.000,-350.000,126.000,198.000,-430.500,,-15371,-3337,4593,-7,3,-5,84,132,-287,0x20
208096756,-937.631,-203.557,280.173,-490.000,210.000,-350.000,124.500,199.500,-432.000,,-15371,-3337,4593,-7,3,-5,83,133,-288,0x20
208098057,-935.496,-205.204,277.367,-280.000,0.000,-630.000,124.500,199.500,-432.000,,-15336,-3364,4547,-4,0,-9,83,133,-288,0x18
208106678,-935.496,-205.204,277.367,-280.000,0.000,-630.000,126.000,196.500,-427.500,,-15336,-3364,4547,-4,0,-9,84,131,-285,0x20
208114872,-931.836,-200.141,280.112,-140.000,-70.000,-770.000,126.000,196.500,-427.500,,-15276,-3281,4592,-2,-1,-11,84,131,-285,0x18
208116587,-931.836,-200.141,280.112,-140.000,-70.000,-770.000,124.500,195.000,-429.000,,-15276,-3281,4592,-2,-1,-11,83,130,-286,0x20
208126401,-931.836,-200.141,280.112,-140.000,-70.000,-770.000,123.000,198.000,-426.000,,-15276,-3281,4592,-2,-1,-11,82,132,-284,0x20
208131762,-932.263,-205.021,276.696,-210.000,-420.000,-700.000,123.000,198.000,-426.000,,-15283,-3361,4536,-3,-6,-10,82,132,-284,0x18
208136311,-932.263,-205.021,276.696,-210.000,-420.000,-700.000,123.000,186.000,-427.500,,-15283,-3361,4536,-3,-6,-10,82,124,-285,0x20
208146267,-932.263,-205.021,276.696,-210.000,-420.000,-700.000,120.000,192.000,-427.500,,-15283,-3361,4536,-3,-6,-10,80,128,-285,0x20
208148523,-942.084,-207.705,273.219,70.000,-700.000,-630.000,120.000,192.000,-427.500,,-15444,-3405,4479,1,-10,-9,80,128,-285,0x18
208156175,-942.084,-207.705,273.219,70.000,-700.000,-630.000,130.500,204.000,-427.500,,-15444,-3405,4479,1,-10,-9,87,136,-285,0x20
208165312,-942.084,-207.705,273.219,420.000,-560.000,-490.000,130.500,204.000,-427.500,,-15444,-3405,4479,6,-8,-7,87,136,-285,0x10
208165496,-940.620,-201.361,278.709,420.000,-560.000,-490.000,130.500,204.000,-427.500,,-15420,-3301,4569,6,-8,-7,87,136,-285,0x08
208166109,-940.620,-201.361,278.709,420.000,-560.000,-490.000,124.500,195.000,-423.000,,-15420,-3301,4569,6,-8,-7,83,130,-282,0x20
208176066,-940.620,-201.361,278.709,420.000,-560.000,-490.000,117.000,199.500,-436.500,,-15420,-3301,4569,6,-8,-7,78,133,-291,0x20
208182242,-933.849,-203.496,278.404,70.000,-280.000,-630.000,117.000,199.500,-436.500,,-15309,-3336,4564,1,-4,-9,78,133,-291,0x18
208185842,-933.849,-203.496,278.404,70.000,-280.000,-630.000,129.000,192.000,-435.000,,-15309,-3336,4564,1,-4,-9,86,128,-290,0x20
208195797,-933.849,-203.496,278.404,70.000,-280.000,-630.000,130.500,195.000,-429.000,,-15309,-3336,4564,1,-4,-9,87,130,-286,0x20
208199005,-934.520,-205.021,282.308,-630.000,350.000,-70.000,130.500,195.000,-429.000,,-15320,-3361,4628,-9,5,-1,87,130,-286,0x18
208205726,-934.520,-205.021,282.308,-630.000,350.000,-70.000,126.000,204.000,-432.000,,-15320,-3361,4628,-9,5,-1,84,136,-288,0x20
208215674,-934.520,-205.021,282.308,-630.000,350.000,-70.000,126.000,201.000,-427.500,,-15320,-3361,4628,-9,5,-1,84,134,-285,0x20
208216032,-944.280,-207.400,275.964,-840.000,420.000,-490.000,126.000,201.000,-427.500,,-15480,-3400,4524,-12,6,-7,84,134,-285,0x18
208225568,-944.280,-207.400,275.964,-840.000,420.000,-490.000,123.000,201.000,-418.500,,-15480,-3400,4524,-12,6,-7,82,134,-279,0x20
208232695,-939.827,-198.860,278.831,-420.000,-210.000,-630.000,123.000,201.000,-418.500,,-15407,-3260,4571,-6,-3,-9,82,134,-279,0x18
208235493,-939.827,-198.860,278.831,-420.000,-210.000,-630.000,129.000,192.000,-427.500,,-15407,-3260,4571,-6,-3,-9,86,128,-285,0x20
208245321,-939.827,-198.860,278.831,-420.000,-210.000,-630.000,127.500,195.000,-429.000,,-15407,-3260,4571,-6,-3,-9,85,130,-286,0x20
208249475,-935.313,-196.237,274.500,-490.000,140.000,-630.000,127.500,195.000,-429.000,,-15333,-3217,4500,-7,2,-9,85,130,-286,0x18
208255231,-935.313,-196.237,274.500,-490.000,140.000,-630.000,132.000,199.500,-432.000,,-15333,-3217,4500,-7,2,-9,88,133,-288,0x20
208265187,-935.313,-196.237,274.500,-490.000,140.000,-630.000,124.500,198.000,-432.000,,-15333,-3217,4500,-7,2,-9,83,132,-288,0x20
208266370,-938.729,-202.276,275.964,-560.000,700.000,-980.000,124.500,198.000,-432.000,,-15389,-3316,4524,-8,10,-14,83,132,-288,0x18
208275110,-938.729,-202.276,275.964,-560.000,700.000,-980.000,129.000,195.000,-427.500,,-15389,-3316,4524,-8,10,-14,86,130,-285,0x20
208283168,-935.740,-204.960,279.929,-910.000,840.000,-840.000,129.000,195.000,-427.500,,-15340,-3360,4589,-13,12,-12,86,130,-285,0x18
208285004,-935.740,-204.960,279.929,-910.000,840.000,-840.000,127.500,201.000,-430.500,,-15340,-3360,4589,-13,12,-12,85,134,-287,0x20
208294825,-935.740,-204.960,279.929,-910.000,840.000,-840.000,126.000,196.500,-429.000,,-15340,-3360,4589,-13,12,-12,84,131,-286,0x20
208300059,-933.483,-204.228,284.443,-1120.000,420.000,-560.000,126.000,196.500,-429.000,,-15303,-3348,4663,-16,6,-8,84,131,-286,0x18
208304754,-933.483,-204.228,284.443,-1120.000,420.000,-560.000,127.500,201.000,-430.500,,-15303,-3348,4663,-16,6,-8,85,134,-287,0x20
208314702,-933.483,-204.228,284.443,-1120.000,420.000,-560.000,124.500,192.000,-426.000,,-15303,-3348,4663,-16,6,-8,83,128,-284,0x20
208316822,-937.631,-206.241,284.931,-1260.000,490.000,-490.000,124.500,192.000,-426.000,,-15371,-3381,4671,-18,7,-7,83,128,-284,0x18
208324605,-937.631,-206.241,284.931,-1260.000,490.000,-490.000,126.000,199.500,-424.500,,-15371,-3381,4671,-18,7,-7,84,133,-283,0x20
208333604,-939.095,-203.679,283.040,-910.000,560.000,-910.000,126.000,199.500,-424.500,,-15395,-3339,4640,-13,8,-13,84,133,-283,0x18
208334494,-939.095,-203.679,283.040,-910.000,560.000,-910.000,133.500,196.500,-423.000,,-15395,-3339,4640,-13,8,-13,89,131,-282,0x20
208344433,-939.095,-203.679,283.040,-910.000,560.000,-910.000,129.000,199.500,-423.000,,-15395,-3339,4640,-13,8,-13,86,133,-282,0x20
208350468,-938.607,-201.483,282.369,-1540.000,1330.000,-630.000,129.000,199.500,-423.000,,-15387,-3303,4629,-22,19,-9,86,133,-282,0x18
208354345,-938.607,-201.483,282.369,-1540.000,1330.000,-630.000,132.000,187.500,-427.500,,-15387,-3303,4629,-22,19,-9,88,125,-285,0x20
208364297,-938.607,-201.483,282.369,-1540.000,1330.000,-630.000,136.500,196.500,-426.000,,-15387,-3303,4629,-22,19,-9,91,131,-284,0x20
208367362,-942.511,-207.644,272.548,-1470.000,840.000,-700.000,136.500,196.500,-426.000,,-15451,-3404,4468,-21,12,-10,91,131,-284,0x18
208374200,-942.511,-207.644,272.548,-1470.000,840.000,-700.000,129.000,195.000,-429.000,,-15451,-3404,4468,-21,12,-10,86,130,-286,0x20
208384011,-942.511,-207.644,272.548,-1470.000,840.000,-700.000,127.500,204.000,-426.000,,-15451,-3404,4468,-21,12,-10,85,136,-284,0x20
208384367,-940.864,-202.093,278.831,-1120.000,560.000,-910.000,127.500,204.000,-426.000,,-15424,-3313,4571,-16,8,-13,85,136,-284,0x18
208394028,-940.864,-202.093,278.831,-1120.000,560.000,-910.000,129.000,186.000,-424.500,,-15424,-3313,4571,-16,8,-13,86,124,-283,0x20
208401008,-932.080,-203.313,277.123,-1960.000,1190.000,-1050.000,129.000,186.000,-424.500,,-15280,-3333,4543,-28,17,-15,86,124,-283,0x18
208403933,-932.080,-203.313,277.123,-1960.000,1190.000,-1050.000,126.000,204.000,-429.000,,-15280,-3333,4543,-28,17,-15,84,136,-286,0x20
208413739,-932.080,-203.313,277.123,-1960.000,1190.000,-1050.000,123.000,204.000,-424.500,,-15280,-3333,4543,-28,17,-15,82,136,-283,0x20
208417764,-931.348,-201.788,280.539,-1890.000,630.000,-70.000,123.000,204.000,-424.500,,-15268,-3308,4599,-27,9,-1,82,136,-283,0x18
208423658,-931.348,-201.788,280.539,-1890.000,630.000,-70.000,127.500,193.500,-426.000,,-15268,-3308,4599,-27,9,-1,85,129,-284,0x20
208433606,-931.348,-201.788,280.539,-1890.000,630.000,-70.000,124.500,193.500,-424.500,,-15268,-3308,4599,-27,9,-1,83,129,-283,0x20
208434638,-936.899,-204.045,276.452,-1680.000,840.000,-210.000,124.500,193.500,-424.500,,-15359,-3345,4532,-24,12,-3,83,129,-283,0x18
208443488,-936.899,-204.045,276.452,-1680.000,840.000,-210.000,115.500,195.000,-432.000,,-15359,-3345,4532,-24,12,-3,77,130,-288,0x20
208451413,-940.559,-206.729,276.452,-1820.000,770.000,-280.000,115.500,195.000,-432.000,,-15419,-3389,4532,-26,11,-4,77,130,-288,0x18
208453394,-940.559,-206.729,276.452,-1820.000,770.000,-280.000,127.500,192.000,-430.500,,-15419,-3389,4532,-26,11,-4,85,128,-287,0x20
208463334,-940.559,-206.729,276.452,-1820.000,770.000,-280.000,130.500,196.500,-430.500,,-15419,-3389,4532,-26,11,-4,87,131,-287,0x20
208468306,-940.132,-205.692,275.232,-2100.000,490.000,-490.000,130.500,196.500,-430.500,,-15412,-3372,4512,-30,7,-7,87,131,-287,0x18
208473269,-940.132,-205.692,275.232,-2100.000,490.000,-490.000,133.500,190.500,-427.500,,-15412,-3372,4512,-30,7,-7,89,127,-285,0x20
208483218,-940.132,-205.692,275.232,-2100.000,490.000,-490.000,118.500,195.000,-427.500,,-15412,-3372,4512,-30,7,-7,79,130,-285,0x20
208485060,-935.435,-202.703,275.537,-2100.000,840.000,-280.000,118.500,195.000,-427.500,,-15335,-3323,4517,-30,12,-4,79,130,-285,0x18
208493122,-935.435,-202.703,275.537,-2100.000,840.000,-280.000,127.500,192.000,-433.500,,-15335,-3323,4517,-30,12,-4,85,128,-289,0x20
208501985,-934.032,-204.167,276.452,-1960.000,1470.000,-490.000,127.500,192.000,-433.500,,-15312,-3347,4532,-28,21,-7,85,128,-289,0x18
208503011,-934.032,-204.167,276.452,-1960.000,1470.000,-490.000,123.000,195.000,-433.500,,-15312,-3347,4532,-28,21,-7,82,130,-289,0x20
208513083,-934.032,-204.167,276.452,-1960.000,1470.000,-490.000,124.500,193.500,-429.000,,-15312,-3347,4532,-28,21,-7,83,129,-286,0x20
208518715,-937.692,-206.912,274.439,-1680.000,1190.000,-700.000,124.500,193.500,-429.000,,-15372,-3392,4499,-24,17,-10,83,129,-286,0x18
208523001,-937.692,-206.912,274.439,-1680.000,1190.000,-700.000,129.000,196.500,-417.000,,-15372,-3392,4499,-24,17,-10,86,131,-278,0x20
208532813,-937.692,-206.912,274.439,-1680.000,1190.000,-700.000,124.500,192.000,-420.000,,-15372,-3392,4499,-24,17,-10,83,128,-280,0x20
208535616,-935.313,-206.424,271.633,-1610.000,770.000,-630.000,124.500,192.000,-420.000,,-15333,-3384,4453,-23,11,-9,83,128,-280,0x18
208542732,-935.313,-206.424,271.633,-1610.000,770.000,-630.000,123.000,201.000,-418.500,,-15333,-3384,4453,-23,11,-9,82,134,-279,0x20
208552419,-935.069,-205.631,269.376,-1610.000,560.000,-350.000,123.000,201.000,-418.500,,-15329,-3371,4416,-23,8,-5,82,134,-279,0x18
208552635,-935.069,-205.631,269.376,-1610.000,560.000,-350.000,129.000,193.500,-421.500,,-15329,-3371,4416,-23,8,-5,86,129,-281,0x20
208562597,-935.069,-205.631,269.376,-1610.000,560.000,-350.000,130.500,202.500,-430.500,,-15329,-3371,4416,-23,8,-5,87,135,-287,0x20
208569181,-935.069,-205.631,269.376,-1400.000,630.000,-560.000,130.500,202.500,-430.500,,-15329,-3371,4416,-20,9,-8,87,135,-287,0x10
208569365,-939.400,-206.729,270.291,-1400.000,630.000,-560.000,130.500,202.500,-430.500,,-15400,-3389,4431,-20,9,-8,87,135,-287,0x08
208572537,-939.400,-206.729,270.291,-1400.000,630.000,-560.000,124.500,192.000,-421.500,,-15400,-3389,4431,-20,9,-8,83,128,-281,0x20
208582337,-939.400,-206.729,270.291,-1400.000,630.000,-560.000,124.500,186.000,-418.500,,-15400,-3389,4431,-20,9,-8,83,124,-279,0x20
208586079,-940.132,-207.400,273.280,-1260.000,700.000,-1050.000,124.500,186.000,-418.500,,-15412,-3400,4480,-18,10,-15,83,124,-279,0x18
208592257,-940.132,-207.400,273.280,-1260.000,700.000,-1050.000,120.000,198.000,-423.000,,-15412,-3400,4480,-18,10,-15,80,132,-282,0x20
208602201,-940.132,-207.400,273.280,-1260.000,700.000,-1050.000,124.500,192.000,-421.500,,-15412,-3400,4480,-18,10,-15,83,128,-281,0x20
208602962,-943.060,-207.461,275.476,-1190.000,70.000,-840.000,124.500,192.000,-421.500,,-15460,-3401,4516,-17,1,-12,83,128,-281,0x18
208612110,-943.060,-207.461,275.476,-1190.000,70.000,-840.000,124.500,193.500,-427.500,,-15460,-3401,4516,-17,1,-12,83,129,-285,0x20
208619756,-937.936,-203.984,277.489,-1470.000,140.000,-630.000,124.500,193.500,-427.500,,-15376,-3344,4549,-21,2,-9,83,129,-285,0x18
208622021,-937.936,-203.984,277.489,-1470.000,140.000,-630.000,126.000,199.500,-426.000,,-15376,-3344,4549,-21,2,-9,84,133,-284,0x20
208631976,-937.936,-203.984,277.489,-1470.000,140.000,-630.000,129.000,190.500,-421.500,,-15376,-3344,4549,-21,2,-9,86,127,-281,0x20
208636517,-937.997,-208.315,271.999,-1890.000,840.000,-630.000,129.000,190.500,-421.500,,-15377,-3415,4459,-27,12,-9,86,127,-281,0x18
208641884,-937.997,-208.315,271.999,-1890.000,840.000,-630.000,123.000,195.000,-421.500,,-15377,-3415,4459,-27,12,-9,82,130,-281,0x20
208651706,-937.997,-208.315,271.999,-1890.000,840.000,-630.000,124.500,190.500,-423.000,,-15377,-3415,4459,-27,12,-9,83,127,-282,0x20
208653412,-939.095,-206.180,271.084,-1120.000,1050.000,-1260.000,124.500,190.500,-423.000,,-15395,-3380,4444,-16,15,-18,83,127,-282,0x18
208661599,-939.095,-206.180,271.084,-1120.000,1050.000,-1260.000,129.000,189.000,-432.000,,-15395,-3380,4444,-16,15,-18,86,126,-288,0x20
208670204,-935.252,-202.764,271.084,-1470.000,1120.000,-1120.000,129.000,189.000,-432.000,,-15332,-3324,4444,-21,16,-16,86,126,-288,0x18
208671521,-935.252,-202.764,271.084,-1470.000,1120.000,-1120.000,123.000,189.000,-420.000,,-15332,-3324,4444,-21,16,-16,82,126,-280,0x20
208681474,-935.252,-202.764,271.084,-1470.000,1120.000,-1120.000,126.000,198.000,-429.000,,-15332,-3324,4444,-21,16,-16,84,132,-286,0x20
208686984,-935.252,-202.764,271.084,-1190.000,560.000,-560.000,126.000,198.000,-429.000,,-15332,-3324,4444,-17,8,-8,84,132,-286,0x10
208687168,-930.372,-203.191,276.696,-1190.000,560.000,-560.000,126.000,198.000,-429.000,,-15252,-3331,4536,-17,8,-8,84,132,-286,0x08
208691401,-930.372,-203.191,276.696,-1190.000,560.000,-560.000,127.500,196.500,-433.500,,-15252,-3331,4536,-17,8,-8,85,131,-289,0x20
208701215,-930.372,-203.191,276.696,-1190.000,560.000,-560.000,132.000,199.500,-424.500,,-15252,-3331,4536,-17,8,-8,88,133,-283,0x20
208703884,-932.629,-209.047,278.404,-1540.000,210.000,-280.000,132.000,199.500,-424.500,,-15289,-3427,4564,-22,3,-4,88,133,-283,0x18
208711140,-932.629,-209.047,278.404,-1540.000,210.000,-280.000,124.500,196.500,-420.000,,-15289,-3427,4564,-22,3,-4,83,131,-280,0x20
208720680,-939.156,-206.241,273.463,-1470.000,140.000,-630.000,124.500,196.500,-420.000,,-15396,-3381,4483,-21,2,-9,83,131,-280,0x18
208721033,-939.156,-206.241,273.463,-1470.000,140.000,-630.000,130.500,196.500,-417.000,,-15396,-3381,4483,-21,2,-9,87,131,-278,0x20
208730983,-939.156,-206.241,273.463,-1470.000,140.000,-630.000,127.500,189.000,-424.500,,-15396,-3381,4483,-21,2,-9,85,126,-283,0x20
208737560,-940.437,-205.143,266.875,-1260.000,210.000,-630.000,127.500,189.000,-424.500,,-15417,-3363,4375,-18,3,-9,85,126,-283,0x18
208740896,-940.437,-205.143,266.875,-1260.000,210.000,-630.000,126.000,196.500,-430.500,,-15417,-3363,4375,-18,3,-9,84,131,-287,0x20
208750838,-940.437,-205.143,266.875,-1260.000,210.000,-630.000,126.000,189.000,-420.000,,-15417,-3363,4375,-18,3,-9,84,126,-280,0x20
208754320,-939.156,-205.021,261.751,-840.000,560.000,-700.000,126.000,189.000,-420.000,,-15396,-3361,4291,-12,8,-10,84,126,-280,0x18
208760750,-939.156,-205.021,261.751,-840.000,560.000,-700.000,130.500,198.000,-426.000,,-15396,-3361,4291,-12,8,-10,87,132,-284,0x20
208770564,-939.156,-205.021,261.751,-840.000,560.000,-700.000,121.500,187.500,-421.500,,-15396,-3361,4291,-12,8,-10,81,125,-281,0x20
208771191,-940.681,-208.376,266.021,-420.000,1260.000,-910.000,121.500,187.500,-421.500,,-15421,-3416,4361,-6,18,-13,81,125,-281,0x18
208780584,-940.681,-208.376,266.021,-420.000,1260.000,-910.000,123.000,198.000,-426.000,,-15421,-3416,4361,-6,18,-13,82,132,-284,0x20
208787970,-939.827,-211.975,274.500,-350.000,1400.000,-910.000,123.000,198.000,-426.000,,-15407,-3475,4500,-5,20,-13,82,132,-284,0x18
208790508,-939.827,-211.975,274.500,-350.000,1400.000,-910.000,130.500,192.000,-424.500,,-15407,-3475,4500,-5,20,-13,87,128,-283,0x20
208800317,-939.827,-211.975,274.500,-350.000,1400.000,-910.000,124.500,193.500,-427.500,,-15407,-3475,4500,-5,20,-13,83,129,-285,0x20
208804875,-940.315,-210.633,275.476,-700.000,1120.000,-910.000,124.500,193.500,-427.500,,-15415,-3453,4516,-10,16,-13,83,129,-285,0x18
208810232,-940.315,-210.633,275.476,-700.000,1120.000,-910.000,127.500,195.000,-421.500,,-15415,-3453,4516,-10,16,-13,85,130,-281,0x20
208820187,-940.315,-210.633,275.476,-700.000,1120.000,-910.000,133.500,196.500,-423.000,,-15415,-3453,4516,-10,16,-13,89,131,-282,0x20
208821640,-940.559,-205.387,276.025,-910.000,840.000,-840.000,133.500,196.500,-423.000,,-15419,-3367,4525,-13,12,-12,89,131,-282,0x18
208830114,-940.559,-205.387,276.025,-910.000,840.000,-840.000,130.500,198.000,-418.500,,-15419,-3367,4525,-13,12,-12,87,132,-279,0x20
208838444,-936.899,-204.045,271.999,-910.000,980.000,-980.000,130.500,198.000,-418.500,,-15359,-3345,4459,-13,14,-14,87,132,-279,0x18
208840010,-936.899,-204.045,271.999,-910.000,980.000,-980.000,129.000,195.000,-423.000,,-15359,-3345,4459,-13,14,-14,86,130,-282,0x20
208849957,-936.899,-204.045,271.999,-910.000,980.000,-980.000,127.500,190.500,-418.500,,-15359,-3345,4459,-13,14,-14,85,127,-279,0x20
208855330,-931.165,-205.143,272.609,-770.000,420.000,-700.000,127.500,190.500,-418.500,,-15265,-3363,4469,-11,6,-10,85,127,-279,0x18
208859881,-931.165,-205.143,272.609,-770.000,420.000,-700.000,130.500,189.000,-417.000,,-15265,-3363,4469,-11,6,-10,87,126,-278,0x20
208869685,-931.165,-205.143,272.609,-770.000,420.000,-700.000,130.500,192.000,-424.500,,-15265,-3363,4469,-11,6,-10,87,128,-283,0x20
208872089,-931.165,-205.143,272.609,-770.000,-210.000,-420.000,130.500,192.000,-424.500,,-15265,-3363,4469,-11,-3,-6,87,128,-283,0x10
208872273,-931.592,-204.899,270.840,-770.000,-210.000,-420.000,130.500,192.000,-424.500,,-15272,-3359,4440,-11,-3,-6,87,128,-283,0x08
208879623,-931.592,-204.899,270.840,-770.000,-210.000,-420.000,127.500,195.000,-421.500,,-15272,-3359,4440,-11,-3,-6,85,130,-281,0x20
208889031,-937.021,-208.376,269.803,-630.000,-490.000,-630.000,127.500,195.000,-421.500,,-15361,-3416,4423,-9,-7,-9,85,130,-281,0x18
208889516,-937.021,-208.376,269.803,-630.000,-490.000,-630.000,121.500,193.500,-420.000,,-15361,-3416,4423,-9,-7,-9,81,129,-280,0x20
208899485,-937.021,-208.376,269.803,-630.000,-490.000,-630.000,123.000,192.000,-420.000,,-15361,-3416,4423,-9,-7,-9,82,128,-280,0x20
208905794,-941.901,-211.060,269.925,-630.000,-210.000,-700.000,123.000,192.000,-420.000,,-15441,-3460,4425,-9,-3,-10,82,128,-280,0x18
208909406,-941.901,-211.060,269.925,-630.000,-210.000,-700.000,127.500,193.500,-424.500,,-15441,-3460,4425,-9,-3,-10,85,129,-283,0x20
208919232,-941.901,-211.060,269.925,-630.000,-210.000,-700.000,132.000,186.000,-421.500,,-15441,-3460,4425,-9,-3,-10,88,124,-281,0x20
208922575,-942.999,-210.633,268.156,-560.000,0.000,-1050.000,132.000,186.000,-421.500,,-15459,-3453,4396,-8,0,-15,88,124,-281,0x18
208929162,-942.999,-210.633,268.156,-560.000,0.000,-1050.000,133.500,192.000,-423.000,,-15459,-3453,4396,-8,0,-15,89,128,-282,0x20
208939110,-942.999,-210.633,268.156,-560.000,0.000,-1050.000,132.000,186.000,-427.500,,-15459,-3453,4396,-8,0,-15,88,124,-285,0x20
208939466,-938.912,-207.400,273.341,-350.000,70.000,-700.000,132.000,186.000,-427.500,,-15392,-3400,4481,-5,1,-10,88,124,-285,0x18
208949013,-938.912,-207.400,273.341,-350.000,70.000,-700.000,123.000,192.000,-414.000,,-15392,-3400,4481,-5,1,-10,82,128,-276,0x20
208956274,-940.376,-209.840,272.792,-910.000,0.000,-350.000,123.000,192.000,-414.000,,-15416,-3440,4472,-13,0,-5,82,128,-276,0x18
208958928,-940.376,-209.840,272.792,-910.000,0.000,-350.000,120.000,187.500,-420.000,,-15416,-3440,4472,-13,0,-5,80,125,-280,0x20
208968874,-940.376,-209.840,272.792,-910.000,0.000,-350.000,123.000,189.000,-418.500,,-15416,-3440,4472,-13,0,-5,82,126,-279,0x20
208973169,-938.851,-210.267,270.657,-910.000,-420.000,-700.000,123.000,189.000,-418.500,,-15391,-3447,4437,-13,-6,-10,82,126,-279,0x18
208978801,-938.851,-210.267,270.657,-910.000,-420.000,-700.000,132.000,195.000,-426.000,,-15391,-3447,4437,-13,-6,-10,88,130,-284,0x20
208988606,-938.851,-210.267,270.657,-910.000,-420.000,-700.000,126.000,195.000,-421.500,,-15391,-3447,4437,-13,-6,-10,84,130,-281,0x20
208989907,-938.729,-206.363,270.291,-840.000,-910.000,-770.000,126.000,195.000,-421.500,,-15389,-3383,4431,-12,-13,-11,84,130,-281,0x18
208998623,-938.729,-206.363,270.291,-840.000,-910.000,-770.000,129.000,195.000,-421.500,,-15389,-3383,4431,-12,-13,-11,86,130,-281,0x20
209006818,-939.156,-203.801,270.352,-490.000,-840.000,-630.000,129.000,195.000,-421.500,,-15396,-3341,4432,-7,-12,-9,86,130,-281,0x18
209008528,-939.156,-203.801,270.352,-490.000,-840.000,-630.000,126.000,192.000,-427.500,,-15396,-3341,4432,-7,-12,-9,84,128,-285,0x20
209018336,-939.156,-203.801,270.352,-490.000,-840.000,-630.000,123.000,189.000,-429.000,,-15396,-3341,4432,-7,-12,-9,82,126,-286,0x20
209023576,-936.045,-207.339,272.243,-630.000,-70.000,-560.000,123.000,189.000,-429.000,,-15345,-3399,4463,-9,-1,-8,82,126,-286,0x18
209028263,-936.045,-207.339,272.243,-630.000,-70.000,-560.000,123.000,195.000,-430.500,,-15345,-3399,4463,-9,-1,-8,82,130,-287,0x20
