time_s,time[us],acc_x[mg],acc_y[mg],acc_z[mg],acc_x_centered,acc_y_centered,acc_z_centered
0.0,203631013,-950.868,-169.092,249.368,-17.53889930015555,33.77193532918611,-41.49944790046658
0.005974,203636987,-950.868,-169.092,249.368,-17.53889930015555,33.77193532918611,-41.49944790046658
0.007692,203638705,-952.332,-168.604,248.575,-19.00289930015549,34.259935329186106,-42.292447900466584
0.015888,203646901,-952.332,-168.604,248.575,-19.00289930015549,34.259935329186106,-42.292447900466584
0.024501,203655514,-957.212,-169.519,248.331,-23.882899300155486,33.344935329186114,-42.536447900466584
0.025799,203656812,-957.212,-169.519,248.331,-23.882899300155486,33.344935329186114,-42.536447900466584
0.035749,203666762,-957.212,-169.519,248.331,-23.882899300155486,33.344935329186114,-42.536447900466584
0.041396,203672409,-955.931,-163.541,248.209,-22.601899300155537,39.32293532918612,-42.65844790046657
0.045666,203676679,-955.931,-163.541,248.209,-22.601899300155537,39.32293532918612,-42.65844790046657
0.055612,203686625,-955.931,-163.541,248.209,-22.601899300155537,39.32293532918612,-42.65844790046657
0.058154,203689167,-958.981,-164.029,248.148,-25.651899300155492,38.83493532918612,-42.71944790046658
0.065533,203696546,-958.981,-164.029,248.148,-25.651899300155492,38.83493532918612,-42.71944790046658
0.075072,203706085,-958.127,-170.8,250.1,-24.79789930015545,32.06393532918611,-40.76744790046658
0.075422,203706435,-958.127,-170.8,250.1,-24.79789930015545,32.06393532918611,-40.76744790046658
0.085253,203716266,-958.127,-170.8,250.1,-24.79789930015545,32.06393532918611,-40.76744790046658
0.091828,203722841,-954.101,-171.837,248.88,-20.771899300155496,31.02693532918613,-41.98744790046658
0.095175,203726188,-954.101,-171.837,248.88,-20.771899300155496,31.02693532918613,-41.98744790046658
0.105116,203736129,-954.101,-171.837,248.88,-20.771899300155496,31.02693532918613,-41.98744790046658
0.108722,203739735,-944.219,-171.532,250.832,-10.889899300155548,31.33193532918611,-40.03544790046658
0.115027,203746040,-944.219,-171.532,250.832,-10.889899300155548,31.33193532918611,-40.03544790046658
0.124982,203755995,-944.219,-171.532,250.832,-10.889899300155548,31.33193532918611,-40.03544790046658
0.125473,203756486,-944.524,-167.628,250.832,-11.194899300155498,35.235935329186134,-40.03544790046658
0.134884,203765897,-944.524,-167.628,250.832,-11.194899300155498,35.235935329186134,-40.03544790046658
0.142259,203773272,-944.524,-167.628,250.832,-11.194899300155498,35.235935329186134,-40.03544790046658
0.142442,203773455,-953.247,-169.092,248.88,-19.917899300155455,33.77193532918611,-41.98744790046658
0.144787,203775800,-953.247,-169.092,248.88,-19.917899300155455,33.77193532918611,-41.98744790046658
0.154608,203785621,-953.247,-169.092,248.88,-19.917899300155455,33.77193532918611,-41.98744790046658
0.159153,203790166,-956.175,-172.264,243.512,-22.845899300155452,30.59993532918611,-47.35544790046657
0.164516,203795529,-956.175,-172.264,243.512,-22.845899300155452,30.59993532918611,-47.35544790046657
0.174473,203805486,-956.175,-172.264,243.512,-22.845899300155452,30.59993532918611,-47.35544790046657
0.176045,203807058,-957.761,-174.887,245.037,-24.431899300155465,27.97693532918612,-45.83044790046657
0.184381,203815394,-957.761,-174.887,245.037,-24.431899300155465,27.97693532918612,-45.83044790046657
0.192854,203823867,-955.748,-175.192,246.684,-22.418899300155545,27.671935329186113,-44.183447900466575
0.194285,203825298,-955.748,-175.192,246.684,-22.418899300155545,27.671935329186113,-44.183447900466575
0.204231,203835244,-955.748,-175.192,246.684,-22.418899300155545,27.671935329186113,-44.183447900466575
0.209592,203840605,-949.648,-174.216,247.904,-16.318899300155522,28.64793532918611,-42.963447900466576
0.214136,203845149,-949.648,-174.216,247.904,-16.318899300155522,28.64793532918611,-42.963447900466576
0.224074,203855087,-949.648,-174.216,247.904,-16.318899300155522,28.64793532918611,-42.963447900466576
0.22648,203857493,-945.073,-174.399,246.501,-11.743899300155476,28.46493532918612,-44.36644790046657
0.233858,203864871,-945.073,-174.399,246.501,-11.743899300155476,28.46493532918612,-44.36644790046657
0.243268,203874281,-951.112,-171.532,241.011,-17.782899300155464,31.33193532918611,-49.85644790046658
0.243889,203874902,-951.112,-171.532,241.011,-17.782899300155464,31.33193532918611,-49.85644790046658
0.25369,203884703,-951.112,-171.532,241.011,-17.782899300155464,31.33193532918611,-49.85644790046658
0.260129,203891142,-955.016,-170.495,238.693,-21.68689930015546,32.368935329186115,-52.17444790046656
0.263594,203894607,-955.016,-170.495,238.693,-21.68689930015546,32.368935329186115,-52.17444790046656
0.273538,203904551,-955.016,-170.495,238.693,-21.68689930015546,32.368935329186115,-52.17444790046656
0.276886,203907899,-955.016,-170.495,238.693,-21.68689930015546,32.368935329186115,-52.17444790046656
0.277069,203908082,-956.236,-175.375,239.913,-22.906899300155487,27.48893532918612,-50.95444790046656
0.283497,203914510,-956.236,-175.375,239.913,-22.906899300155487,27.48893532918612,-50.95444790046656
0.293317,203924330,-956.236,-175.375,239.913,-22.906899300155487,27.48893532918612,-50.95444790046656
0.293809,203924822,-953.857,-182.024,238.083,-20.527899300155468,20.83993532918612,-52.784447900466574
0.303229,203934242,-953.857,-182.024,238.083,-20.527899300155468,20.83993532918612,-52.784447900466574
0.310624,203941637,-954.284,-187.697,240.34,-20.95489930015549,15.166935329186117,-50.52744790046657
0.313162,203944175,-954.284,-187.697,240.34,-20.95489930015549,15.166935329186117,-50.52744790046657
0.323112,203954125,-954.284,-187.697,240.34,-20.95489930015549,15.166935329186117,-50.52744790046657
0.327407,203958420,-960.872,-173.24,242.536,-27.542899300155455,29.62393532918611,-48.33144790046657
0.333024,203964037,-960.872,-173.24,242.536,-27.542899300155455,29.62393532918611,-48.33144790046657
0.342837,203973850,-960.872,-173.24,242.536,-27.542899300155455,29.62393532918611,-48.33144790046657
0.344273,203975286,-955.443,-165.981,238.632,-22.11389930015548,36.882935329186125,-52.23544790046657
0.352865,203983878,-955.443,-165.981,238.632,-22.11389930015548,36.882935329186125,-52.23544790046657
0.36107,203992083,-961.604,-174.887,226.127,-28.27489930015554,27.97693532918612,-64.74044790046656
0.362645,203993658,-961.604,-174.887,226.127,-28.27489930015554,27.97693532918612,-64.74044790046656
0.372593,204003606,-961.604,-174.887,226.127,-28.27489930015554,27.97693532918612,-64.74044790046656
0.377967,204008980,-964.959,-173.728,237.717,-31.629899300155444,29.13593532918611,-53.15044790046656
0.382519,204013532,-964.959,-173.728,237.717,-31.629899300155444,29.13593532918611,-53.15044790046656
0.392458,204023471,-964.959,-173.728,237.717,-31.629899300155444,29.13593532918611,-53.15044790046656
0.394718,204025731,-958.859,-173.301,224.541,-25.529899300155535,29.562935329186132,-66.32644790046658
0.402376,204033389,-958.859,-173.301,224.541,-25.529899300155535,29.562935329186132,-66.32644790046658
0.411512,204042525,-958.859,-173.301,224.541,-25.529899300155535,29.562935329186132,-66.32644790046658
0.411694,204042707,-952.271,-172.203,240.828,-18.941899300155455,30.660935329186117,-50.03944790046657
0.412285,204043298,-952.271,-172.203,240.828,-18.941899300155455,30.660935329186117,-50.03944790046657
0.422109,204053122,-952.271,-172.203,240.828,-18.941899300155455,30.660935329186117,-50.03944790046657
0.428409,204059422,-954.833,-186.416,239.303,-21.503899300155467,16.447935329186123,-51.564447900466575
0.432022,204063035,-954.833,-186.416,239.303,-21.503899300155467,16.447935329186123,-51.564447900466575
0.442111,204073124,-954.833,-186.416,239.303,-21.503899300155467,16.447935329186123,-51.564447900466575
0.44517,204076183,-954.833,-186.416,239.303,-21.503899300155467,16.447935329186123,-51.564447900466575
0.445353,204076366,-954.284,-183.976,237.473,-20.95489930015549,18.88793532918612,-53.39444790046656
0.452031,204083044,-954.284,-183.976,237.473,-20.95489930015549,18.88793532918612,-53.39444790046656
0.461995,204093008,-954.284,-183.976,237.473,-20.95489930015549,18.88793532918612,-53.39444790046656
0.462384,204093397,-948.672,-172.264,227.347,-15.342899300155523,30.59993532918611,-63.520447900466564
0.471885,204102898,-948.672,-172.264,227.347,-15.342899300155523,30.59993532918611,-63.520447900466564
0.478871,204109884,-944.463,-169.031,225.212,-11.133899300155463,33.832935329186114,-65.65544790046658
0.481787,204112800,-944.463,-169.031,225.212,-11.133899300155463,33.832935329186114,-65.65544790046658
0.491728,204122741,-944.463,-169.031,225.212,-11.133899300155463,33.832935329186114,-65.65544790046658
0.49574,204126753,-952.393,-170.312,237.9,-19.063899300155526,32.55193532918611,-52.96744790046657
0.501642,204132655,-952.393,-170.312,237.9,-19.063899300155526,32.55193532918611,-52.96744790046657
0.511458,204142471,-952.393,-170.312,237.9,-19.063899300155526,32.55193532918611,-52.96744790046657
0.512499,204143512,-959.896,-181.048,243.939,-26.566899300155455,21.815935329186118,-46.92844790046658
0.521362,204152375,-959.896,-181.048,243.939,-26.566899300155455,21.815935329186118,-46.92844790046658
0.529417,204160430,-957.456,-175.192,239.364,-24.126899300155515,27.671935329186113,-51.50344790046657
0.53127,204162283,-957.456,-175.192,239.364,-24.126899300155515,27.671935329186113,-51.50344790046657
0.541227,204172240,-957.456,-175.192,239.364,-24.126899300155515,27.671935329186113,-51.50344790046657
0.546178,204177191,-953.857,-183.0,236.192,-20.527899300155468,19.86393532918612,-54.675447900466565
0.551143,204182156,-953.857,-183.0,236.192,-20.527899300155468,19.86393532918612,-54.675447900466565
0.560963,204191976,-953.857,-183.0,236.192,-20.527899300155468,19.86393532918612,-54.675447900466565
0.563074,204194087,-956.968,-178.425,235.216,-23.638899300155458,24.43893532918611,-55.651447900466565
0.570991,204202004,-956.968,-178.425,235.216,-23.638899300155458,24.43893532918611,-55.651447900466565
0.579866,204210879,-956.968,-176.107,237.168,-23.638899300155458,26.75693532918612,-53.699447900466566
0.580893,204211906,-956.968,-176.107,237.168,-23.638899300155458,26.75693532918612,-53.699447900466566
0.590714,204221727,-956.968,-176.107,237.168,-23.638899300155458,26.75693532918612,-53.699447900466566
0.596738,204227751,-958.92,-177.449,239.608,-25.590899300155456,25.414935329186108,-51.25944790046657
0.600608,204231621,-958.92,-177.449,239.608,-25.590899300155456,25.414935329186108,-51.25944790046657
0.610562,204241575,-958.92,-177.449,239.608,-25.590899300155456,25.414935329186108,-51.25944790046657
0.613499,204244512,-957.456,-181.597,245.22,-24.126899300155515,21.26693532918611,-45.647447900466574
0.620479,204251492,-957.456,-181.597,245.22,-24.126899300155515,21.26693532918611,-45.647447900466574
0.630299,204261312,-958.127,-183.976,247.599,-24.79789930015545,18.88793532918612,-43.26844790046658
0.640325,204271338,-958.127,-183.976,247.599,-24.79789930015545,18.88793532918612,-43.26844790046658
0.64718,204278193,-955.748,-180.072,243.085,-22.418899300155545,22.791935329186117,-47.782447900466565
0.650122,204281135,-955.748,-180.072,243.085,-22.418899300155545,22.791935329186117,-47.782447900466565
0.660073,204291086,-955.748,-180.072,243.085,-22.418899300155545,22.791935329186117,-47.782447900466565
0.663955,204294968,-955.809,-178.669,246.196,-22.479899300155466,24.19493532918611,-44.671447900466575
0.669991,204301004,-955.809,-178.669,246.196,-22.479899300155466,24.19493532918611,-44.671447900466575
0.679939,204310952,-955.809,-178.669,246.196,-22.479899300155466,24.19493532918611,-44.671447900466575
0.680836,204311849,-948.184,-177.449,247.111,-14.854899300155466,25.414935329186108,-43.75644790046658
0.68984,204320853,-948.184,-177.449,247.111,-14.854899300155466,25.414935329186108,-43.75644790046658
0.69763,204328643,-950.807,-180.316,245.952,-17.477899300155514,22.547935329186117,-44.915447900466575
0.699735,204330748,-950.807,-180.316,245.952,-17.477899300155514,22.547935329186117,-44.915447900466575
0.709687,204340700,-950.807,-180.316,245.952,-17.477899300155514,22.547935329186117,-44.915447900466575
0.714523,204345536,-953.003,-188.063,249.368,-19.67389930015554,14.800935329186132,-41.49944790046658
0.719487,204350500,-953.003,-188.063,249.368,-19.67389930015554,14.800935329186132,-41.49944790046658
0.729452,204360465,-953.003,-188.063,249.368,-19.67389930015554,14.800935329186132,-41.49944790046658
0.731293,204362306,-947.513,-187.209,251.564,-14.183899300155531,15.654935329186117,-39.30344790046658
0.73936,204370373,-947.513,-187.209,251.564,-14.183899300155531,15.654935329186117,-39.30344790046658
0.748085,204379098,-941.047,-188.612,247.172,-7.717899300155523,14.251935329186125,-43.695447900466576
0.749246,204380259,-941.047,-188.612,247.172,-7.717899300155523,14.251935329186125,-43.695447900466576
0.759196,204390209,-941.047,-188.612,247.172,-7.717899300155523,14.251935329186125,-43.695447900466576
0.764977,204395990,-943.365,-187.453,250.039,-10.035899300155506,15.410935329186117,-40.828447900466585
0.769118,204400131,-943.365,-187.453,250.039,-10.035899300155506,15.410935329186117,-40.828447900466585
0.778933,204409946,-943.365,-187.453,250.039,-10.035899300155506,15.410935329186117,-40.828447900466585
0.781744,204412757,-950.563,-188.612,253.577,-17.233899300155485,14.251935329186125,-37.290447900466575
0.788854,204419867,-950.563,-188.612,253.577,-17.233899300155485,14.251935329186125,-37.290447900466575
0.798669,204429682,-951.6,-189.893,254.492,-18.27089930015552,12.97093532918612,-36.37544790046658
0.798885,204429898,-951.6,-189.893,254.492,-18.27089930015552,12.97093532918612,-36.37544790046658
0.80869,204439703,-951.6,-189.893,254.492,-18.27089930015552,12.97093532918612,-36.37544790046658
0.8154,204446413,-951.905,-190.32,257.664,-18.57589930015547,12.543935329186127,-33.203447900466585
0.818595,204449608,-951.905,-190.32,257.664,-18.57589930015547,12.543935329186127,-33.203447900466585
0.828535,204459548,-951.905,-190.32,257.664,-18.57589930015547,12.543935329186127,-33.203447900466585
0.832293,204463306,-952.881,-191.479,252.296,-19.55189930015547,11.384935329186106,-38.57144790046658
0.838462,204469475,-952.881,-191.479,252.296,-19.55189930015547,11.384935329186106,-38.57144790046658
0.848403,204479416,-952.881,-191.479,252.296,-19.55189930015547,11.384935329186106,-38.57144790046658
0.849029,204480042,-952.881,-191.479,252.296,-19.55189930015547,11.384935329186106,-38.57144790046658
0.849213,204480226,-945.683,-183.976,262.727,-12.35389930015549,18.88793532918612,-28.140447900466597
0.858333,204489346,-945.683,-183.976,262.727,-12.35389930015549,18.88793532918612,-28.140447900466597
0.865856,204496869,-945.683,-183.976,262.727,-12.35389930015549,18.88793532918612,-28.140447900466597
0.86604,204497053,-939.644,-186.416,254.675,-6.314899300155503,16.447935329186123,-36.19244790046656
0.868131,204499144,-939.644,-186.416,254.675,-6.314899300155503,16.447935329186123,-36.19244790046656
0.878095,204509108,-939.644,-186.416,254.675,-6.314899300155503,16.447935329186123,-36.19244790046656
0.882788,204513801,-948.367,-187.331,248.88,-15.037899300155459,15.532935329186131,-41.98744790046658
0.888007,204519020,-948.367,-187.331,248.88,-15.037899300155459,15.532935329186131,-41.98744790046658
0.89796,204528973,-948.367,-187.331,248.88,-15.037899300155459,15.532935329186131,-41.98744790046658
0.899531,204530544,-951.295,-188.795,253.516,-17.965899300155456,14.068935329186132,-37.35144790046658
0.907877,204538890,-951.295,-188.795,253.516,-17.965899300155456,14.068935329186132,-37.35144790046658
0.916341,204547354,-951.295,-188.795,253.516,-17.965899300155456,14.068935329186132,-37.35144790046658
0.916524,204547537,-944.524,-191.113,256.932,-11.194899300155498,11.75093532918612,-33.935447900466556
0.917678,204548691,-944.524,-191.113,256.932,-11.194899300155498,11.75093532918612,-33.935447900466556
0.927611,204558624,-944.524,-191.113,256.932,-11.194899300155498,11.75093532918612,-33.935447900466556
0.93324,204564253,-941.352,-192.76,256.2,-8.022899300155473,10.103935329186129,-34.667447900466584
0.937522,204568535,-941.352,-192.76,256.2,-8.022899300155473,10.103935329186129,-34.667447900466584
0.947475,204578488,-941.352,-192.76,256.2,-8.022899300155473,10.103935329186129,-34.667447900466584
0.950002,204581015,-941.352,-192.76,256.2,-8.022899300155473,10.103935329186129,-34.667447900466584
0.950185,204581198,-938.668,-188.795,263.764,-5.338899300155504,14.068935329186132,-27.103447900466563
0.957401,204588414,-938.668,-188.795,263.764,-5.338899300155504,14.068935329186132,-27.103447900466563
0.966935,204597948,-940.193,-190.076,262.3,-6.863899300155481,12.787935329186126,-28.56744790046656
0.96729,204598303,-940.193,-190.076,262.3,-6.863899300155481,12.787935329186126,-28.56744790046656
0.977122,204608135,-940.193,-190.076,262.3,-6.863899300155481,12.787935329186126,-28.56744790046656
0.983699,204614712,-943.792,-194.651,264.008,-10.462899300155527,8.21293532918611,-26.85944790046659
0.987028,204618041,-943.792,-194.651,264.008,-10.462899300155527,8.21293532918611,-26.85944790046659
0.996993,204628006,-943.792,-194.651,264.008,-10.462899300155527,8.21293532918611,-26.85944790046659
1.000596,204631609,-942.755,-195.749,265.96,-9.425899300155493,7.114935329186125,-24.907447900466593
1.006902,204637915,-942.755,-195.749,265.96,-9.425899300155493,7.114935329186125,-24.907447900466593
1.016866,204647879,-942.755,-195.749,265.96,-9.425899300155493,7.114935329186125,-24.907447900466593
1.01736,204648373,-936.167,-198.311,263.764,-2.8378993001555273,4.552935329186113,-27.103447900466563
1.026764,204657777,-936.167,-198.311,263.764,-2.8378993001555273,4.552935329186113,-27.103447900466563
1.034147,204665160,-933.117,-196.725,262.727,0.21210069984454094,6.1389353291861255,-28.140447900466597
1.03668,204667693,-933.117,-196.725,262.727,0.21210069984454094,6.1389353291861255,-28.140447900466597
1.046511,204677524,-933.117,-196.725,262.727,0.21210069984454094,6.1389353291861255,-28.140447900466597
1.051064,204682077,-938.18,-196.115,262.788,-4.850899300155447,6.748935329186111,-28.079447900466562
1.056421,204687434,-938.18,-196.115,262.788,-4.850899300155447,6.748935329186111,-28.079447900466562
1.066385,204697398,-938.18,-196.115,262.788,-4.850899300155447,6.748935329186111,-28.079447900466562
1.067827,204698840,-941.169,-198.616,268.583,-7.83989930015548,4.247935329186106,-22.284447900466546
1.076432,204707445,-941.169,-198.616,268.583,-7.83989930015548,4.247935329186106,-22.284447900466546
1.084642,204715655,-941.169,-201.849,272.365,-7.83989930015548,1.0149353291861303,-18.502447900466564
1.086344,204717357,-941.169,-201.849,272.365,-7.83989930015548,1.0149353291861303,-18.502447900466564
1.096293,204727306,-941.169,-201.849,272.365,-7.83989930015548,1.0149353291861303,-18.502447900466564
1.101535,204732548,-935.496,-203.557,273.768,-2.166899300155478,-0.6930646708138681,-17.0994479004666
1.106097,204737110,-935.496,-203.557,273.768,-2.166899300155478,-0.6930646708138681,-17.0994479004666
1.11604,204747053,-935.496,-203.557,273.768,-2.166899300155478,-0.6930646708138681,-17.0994479004666
1.118308,204749321,-929.701,-201.727,273.28,3.628100699844481,1.136935329186116,-17.5874479004666
1.125955,204756968,-929.701,-201.727,273.28,3.628100699844481,1.136935329186116,-17.5874479004666
1.135094,204766107,-929.701,-201.727,273.28,3.628100699844481,1.136935329186116,-17.5874479004666
1.135277,204766290,-933.544,-197.823,259.921,-0.21489930015547998,5.040935329186112,-30.94644790046658
1.135866,204766879,-933.544,-197.823,259.921,-0.21489930015547998,5.040935329186112,-30.94644790046658
1.145822,204776835,-933.544,-197.823,259.921,-0.21489930015547998,5.040935329186112,-30.94644790046658
1.151989,204783002,-936.716,-187.636,268.156,-3.3868993001555054,15.227935329186124,-22.711447900466567
1.155623,204786636,-936.716,-187.636,268.156,-3.3868993001555054,15.227935329186124,-22.711447900466567
1.165586,204796599,-936.716,-187.636,268.156,-3.3868993001555054,15.227935329186124,-22.711447900466567
1.168796,204799809,-933.544,-192.333,274.012,-0.21489930015547998,10.530935329186121,-16.855447900466572
1.175516,204806529,-933.544,-192.333,274.012,-0.21489930015547998,10.530935329186121,-16.855447900466572
1.185462,204816475,-933.544,-192.333,274.012,-0.21489930015547998,10.530935329186121,-16.855447900466572
1.18582,204816833,-932.568,-204.472,279.563,0.7611006998445191,-1.6080646708138886,-11.304447900466585
1.195366,204826379,-932.568,-204.472,279.563,0.7611006998445191,-1.6080646708138886,-11.304447900466585
1.202491,204833504,-938.18,-206.729,274.5,-4.850899300155447,-3.8650646708138936,-16.367447900466573
1.20528,204836293,-938.18,-206.729,274.5,-4.850899300155447,-3.8650646708138936,-16.367447900466573
1.215094,204846107,-938.18,-206.729,274.5,-4.850899300155447,-3.8650646708138936,-16.367447900466573
1.219252,204850265,-942.389,-199.287,270.657,-9.059899300155507,3.5769353291861137,-20.21044790046659
1.225012,204856025,-942.389,-199.287,270.657,-9.059899300155507,3.5769353291861137,-20.21044790046659
1.234959,204865972,-942.389,-199.287,270.657,-9.059899300155507,3.5769353291861137,-20.21044790046659
1.236125,204867138,-939.4,-192.76,269.62,-6.0708993001554745,10.103935329186129,-21.247447900466568
1.244841,204875854,-939.4,-192.76,269.62,-6.0708993001554745,10.103935329186129,-21.247447900466568
1.252902,204883915,-939.4,-192.76,269.62,-6.0708993001554745,10.103935329186129,-21.247447900466568
1.253085,204884098,-935.557,-187.453,270.352,-2.2278993001555136,15.410935329186117,-20.515447900466597
1.254766,204885779,-935.557,-187.453,270.352,-2.2278993001555136,15.410935329186117,-20.515447900466597
1.264714,204895727,-935.557,-187.453,270.352,-2.2278993001555136,15.410935329186117,-20.515447900466597
1.269804,204900817,-937.021,-196.176,275.171,-3.6918993001554554,6.687935329186132,-15.69644790046658
1.274635,204905648,-937.021,-196.176,275.171,-3.6918993001554554,6.687935329186132,-15.69644790046658
1.284445,204915458,-937.021,-196.176,275.171,-3.6918993001554554,6.687935329186132,-15.69644790046658
1.286555,204917568,-937.021,-196.176,275.171,-3.6918993001554554,6.687935329186132,-15.69644790046658
1.28674,204917753,-945.073,-203.74,278.953,-11.743899300155476,-0.8760646708138893,-11.914447900466598
1.294364,204925377,-945.073,-203.74,278.953,-11.743899300155476,-0.8760646708138893,-11.914447900466598
1.303499,204934512,-944.707,-200.751,282.064,-11.377899300155491,2.112935329186115,-8.803447900466551
1.304254,204935267,-944.707,-200.751,282.064,-11.377899300155491,2.112935329186115,-8.803447900466551
1.314214,204945227,-944.707,-200.751,282.064,-11.377899300155491,2.112935329186115,-8.803447900466551
1.320261,204951274,-940.864,-196.847,280.905,-7.53489930015553,6.016935329186111,-9.9624479004666
1.32413,204955143,-940.864,-196.847,280.905,-7.53489930015553,6.016935329186111,-9.9624479004666
1.334074,204965087,-940.864,-196.847,280.905,-7.53489930015553,6.016935329186111,-9.9624479004666
1.337156,204968169,-937.143,-198.189,279.563,-3.8138993001555264,4.674935329186127,-11.304447900466585
1.344003,204975016,-937.143,-198.189,279.563,-3.8138993001555264,4.674935329186127,-11.304447900466585
1.353807,204984820,-937.143,-198.189,279.563,-3.8138993001555264,4.674935329186127,-11.304447900466585
1.354163,204985176,-936.96,-198.311,274.988,-3.6308993001555336,4.552935329186113,-15.879447900466573
1.363705,204994718,-936.96,-198.311,274.988,-3.6308993001555336,4.552935329186113,-15.879447900466573
1.370686,205001699,-936.96,-198.311,274.988,-3.6308993001555336,4.552935329186113,-15.879447900466573
1.37087,205001883,-943.06,-198.067,275.476,-9.730899300155443,4.7969353291861125,-15.391447900466574
1.373637,205004650,-943.06,-198.067,275.476,-9.730899300155443,4.7969353291861125,-15.391447900466574
1.383592,205014605,-943.06,-198.067,275.476,-9.730899300155443,4.7969353291861125,-15.391447900466574
1.387599,205018612,-936.472,-193.248,280.661,-3.1428993001554772,9.61593532918613,-10.206447900466571
1.393508,205024521,-936.472,-193.248,280.661,-3.1428993001554772,9.61593532918613,-10.206447900466571
1.403328,205034341,-936.472,-193.248,280.661,-3.1428993001554772,9.61593532918613,-10.206447900466571
1.404359,205035372,-932.08,-193.492,279.868,1.2491006998444618,9.37193532918613,-10.999447900466578
1.413231,205044244,-932.08,-193.492,279.868,1.2491006998444618,9.37193532918613,-10.999447900466578
1.421164,205052177,-932.08,-193.492,279.868,1.2491006998444618,9.37193532918613,-10.999447900466578
1.421347,205052360,-932.263,-200.263,281.271,1.066100699844469,2.6009353291861146,-9.596447900466558
1.423172,205054185,-932.263,-200.263,281.271,1.066100699844469,2.6009353291861146,-9.596447900466558
1.433119,205064132,-932.263,-200.263,281.271,1.066100699844469,2.6009353291861146,-9.596447900466558
1.43809,205069103,-939.217,-198.311,279.38,-5.887899300155482,4.552935329186113,-11.487447900466577
1.443047,205074060,-939.217,-198.311,279.38,-5.887899300155482,4.552935329186113,-11.487447900466577
1.452863,205083876,-939.217,-198.311,279.38,-5.887899300155482,4.552935329186113,-11.487447900466577
1.454862,205085875,-934.52,-199.409,276.635,-1.190899300155479,3.454935329186128,-14.232447900466582
1.46278,205093793,-934.52,-199.409,276.635,-1.190899300155479,3.454935329186128,-14.232447900466582
1.471781,205102794,-929.396,-198.86,277.123,3.9331006998445446,4.003935329186106,-13.744447900466582
1.472669,205103682,-929.396,-198.86,277.123,3.9331006998445446,4.003935329186106,-13.744447900466582
1.482609,205113622,-929.396,-198.86,277.123,3.9331006998445446,4.003935329186106,-13.744447900466582
1.488507,205119520,-933.056,-195.871,273.829,0.2731006998444627,6.9929353291861105,-17.038447900466565
1.49252,205123533,-933.056,-195.871,273.829,0.2731006998444627,6.9929353291861105,-17.038447900466565
1.50246,205133473,-933.056,-195.871,273.829,0.2731006998444627,6.9929353291861105,-17.038447900466565
1.505403,205136416,-941.108,-191.601,278.343,-7.7788993001554445,11.26293532918612,-12.524447900466555
1.512377,205143390,-941.108,-191.601,278.343,-7.7788993001554445,11.26293532918612,-12.524447900466555
1.522186,205153199,-944.463,-193.248,278.16,-11.133899300155463,9.61593532918613,-12.707447900466548
1.532205,205163218,-944.463,-193.248,278.16,-11.133899300155463,9.61593532918613,-12.707447900466548
1.539049,205170062,-941.413,-197.152,282.064,-8.083899300155508,5.711935329186133,-8.803447900466551
1.542117,205173130,-941.413,-197.152,282.064,-8.083899300155508,5.711935329186133,-8.803447900466551
1.551936,205182949,-941.413,-197.152,282.064,-8.083899300155508,5.711935329186133,-8.803447900466551
1.555808,205186821,-936.655,-199.104,286.456,-3.32589930015547,3.7599353291861064,-4.411447900466555
1.561838,205192851,-936.655,-199.104,286.456,-3.32589930015547,3.7599353291861064,-4.411447900466555
1.5718,205202813,-936.655,-199.104,286.456,-3.32589930015547,3.7599353291861064,-4.411447900466555
1.572714,205203727,-937.448,-198.677,286.212,-4.118899300155476,4.186935329186127,-4.655447900466584
1.581719,205212732,-937.448,-198.677,286.212,-4.118899300155476,4.186935329186127,-4.655447900466584
1.589517,205220530,-935.984,-194.224,285.541,-2.6548993001555345,8.63993532918613,-5.326447900466576
1.591622,205222635,-935.984,-194.224,285.541,-2.6548993001555345,8.63993532918613,-5.326447900466576
1.601447,205232460,-935.984,-194.224,285.541,-2.6548993001555345,8.63993532918613,-5.326447900466576
1.606278,205237291,-935.984,-194.224,285.541,-2.6548993001555345,8.63993532918613,-5.326447900466576
1.606462,205237475,-938.668,-193.98,283.833,-5.338899300155504,8.88393532918613,-7.034447900466546
1.611388,205242401,-938.668,-193.98,283.833,-5.338899300155504,8.88393532918613,-7.034447900466546
1.621323,205252336,-938.668,-193.98,283.833,-5.338899300155504,8.88393532918613,-7.034447900466546
1.623175,205254188,-943.243,-195.444,285.968,-9.913899300155549,7.419935329186131,-4.899447900466555
1.631227,205262240,-943.243,-195.444,285.968,-9.913899300155549,7.419935329186131,-4.899447900466555
1.63996,205270973,-943.487,-198.128,283.528,-10.157899300155464,4.735935329186134,-7.339447900466553
1.641121,205272134,-943.487,-198.128,283.528,-10.157899300155464,4.735935329186134,-7.339447900466553
1.651057,205282070,-943.487,-198.128,283.528,-10.157899300155464,4.735935329186134,-7.339447900466553
1.656822,205287835,-937.204,-197.457,283.589,-3.874899300155448,5.406935329186126,-7.278447900466574
1.660969,205291982,-937.204,-197.457,283.589,-3.874899300155448,5.406935329186126,-7.278447900466574
1.670918,205301931,-937.204,-197.457,283.589,-3.874899300155448,5.406935329186126,-7.278447900466574
1.673714,205304727,-937.143,-191.296,285.724,-3.8138993001555264,11.567935329186128,-5.143447900466583
1.680822,205311835,-937.143,-191.296,285.724,-3.8138993001555264,11.567935329186128,-5.143447900466583
1.690499,205321512,-930.86,-191.967,287.371,2.469100699844489,10.896935329186107,-3.496447900466592
1.690714,205321727,-930.86,-191.967,287.371,2.469100699844489,10.896935329186107,-3.496447900466592
1.700515,205331528,-930.86,-191.967,287.371,2.469100699844489,10.896935329186107,-3.496447900466592
1.707359,205338372,-931.348,-194.651,286.944,1.9811006998445464,8.21293532918611,-3.923447900466556
1.710687,205341700,-931.348,-194.651,286.944,1.9811006998445464,8.21293532918611,-3.923447900466556
1.720499,205351512,-931.348,-194.651,286.944,1.9811006998445464,8.21293532918611,-3.923447900466556
1.724118,205355131,-936.716,-194.468,284.748,-3.3868993001555054,8.39593532918613,-6.119447900466582
1.730417,205361430,-936.716,-194.468,284.748,-3.3868993001555054,8.39593532918613,-6.119447900466582
1.740364,205371377,-936.716,-194.468,284.748,-3.3868993001555054,8.39593532918613,-6.119447900466582
1.740991,205372004,-938.851,-196.176,281.82,-5.521899300155496,6.687935329186132,-9.04744790046658
1.750247,205381260,-938.851,-196.176,281.82,-5.521899300155496,6.687935329186132,-9.04744790046658
1.757768,205388781,-935.679,-196.115,281.637,-2.349899300155471,6.748935329186111,-9.230447900466572
1.760152,205391165,-935.679,-196.115,281.637,-2.349899300155471,6.748935329186111,-9.230447900466572
1.770095,205401108,-935.679,-196.115,281.637,-2.349899300155471,6.748935329186111,-9.230447900466572
1.774657,205405670,-937.875,-196.603,280.905,-4.545899300155497,6.260935329186111,-9.9624479004666
1.780019,205411032,-937.875,-196.603,280.905,-4.545899300155497,6.260935329186111,-9.9624479004666
1.789959,205420972,-937.875,-196.603,280.905,-4.545899300155497,6.260935329186111,-9.9624479004666
1.791395,205422408,-942.145,-195.444,281.027,-8.815899300155479,7.419935329186131,-9.840447900466586
1.799841,205430854,-942.145,-195.444,281.027,-8.815899300155479,7.419935329186131,-9.840447900466586
1.808306,205439319,-937.448,-192.333,281.332,-4.118899300155476,10.530935329186121,-9.535447900466579
1.809736,205440749,-937.448,-192.333,281.332,-4.118899300155476,10.530935329186121,-9.535447900466579
1.819551,205450564,-937.448,-192.333,281.332,-4.118899300155476,10.530935329186121,-9.535447900466579
1.825062,205456075,-933.971,-194.773,281.576,-0.6418993001555009,8.090935329186124,-9.291447900466551
1.829478,205460491,-933.971,-194.773,281.576,-0.6418993001555009,8.090935329186124,-9.291447900466551
1.839417,205470430,-933.971,-194.773,281.576,-0.6418993001555009,8.090935329186124,-9.291447900466551
1.841932,205472945,-936.96,-196.847,283.04,-3.6308993001555336,6.016935329186111,-7.827447900466552
1.849302,205480315,-936.96,-196.847,283.04,-3.6308993001555336,6.016935329186111,-7.827447900466552
1.858719,205489732,-944.097,-192.028,284.748,-10.767899300155477,10.835935329186128,-6.119447900466582
1.859204,205490217,-944.097,-192.028,284.748,-10.767899300155477,10.835935329186128,-6.119447900466582
1.869158,205500171,-944.097,-192.028,284.748,-10.767899300155477,10.835935329186128,-6.119447900466582
1.875589,205506602,-940.437,-189.893,286.761,-7.107899300155509,12.97093532918612,-4.106447900466549
1.879065,205510078,-940.437,-189.893,286.761,-7.107899300155509,12.97093532918612,-4.106447900466549
1.889028,205520041,-940.437,-189.893,286.761,-7.107899300155509,12.97093532918612,-4.106447900466549
1.892351,205523364,-940.437,-189.893,286.761,-7.107899300155509,12.97093532918612,-4.106447900466549
1.892534,205523547,-938.363,-193.492,284.443,-5.033899300155554,9.37193532918613,-6.424447900466589
1.898933,205529946,-938.363,-193.492,284.443,-5.033899300155554,9.37193532918613,-6.424447900466589
1.908761,205539774,-938.363,-193.492,284.443,-5.033899300155554,9.37193532918613,-6.424447900466589
1.909253,205540266,-941.047,-200.019,272.792,-7.717899300155523,2.8449353291861144,-18.0754479004666
1.918658,205549671,-941.047,-200.019,272.792,-7.717899300155523,2.8449353291861144,-18.0754479004666
1.926057,205557070,-938.424,-193.004,283.467,-5.094899300155475,9.85993532918613,-7.400447900466588
1.928576,205559589,-938.424,-193.004,283.467,-5.094899300155475,9.85993532918613,-7.400447900466588
1.938529,205569542,-938.424,-193.004,283.467,-5.094899300155475,9.85993532918613,-7.400447900466588
1.942826,205573839,-938.424,-193.004,283.467,-5.094899300155475,9.85993532918613,-7.400447900466588
1.943009,205574022,-933.849,-193.309,286.395,-0.5198993001555436,9.554935329186122,-4.472447900466591
1.948472,205579485,-933.849,-193.309,286.395,-0.5198993001555436,9.554935329186122,-4.472447900466591
1.958289,205589302,-933.849,-193.309,286.395,-0.5198993001555436,9.554935329186122,-4.472447900466591
1.959726,205590739,-935.252,-192.943,294.813,-1.92289930015545,9.920935329186108,3.9455520995334155
1.968205,205599218,-935.252,-192.943,294.813,-1.92289930015545,9.920935329186108,3.9455520995334155
1.976531,205607544,-942.755,-200.08,286.151,-9.425899300155493,2.7839353291861073,-4.716447900466562
1.978096,205609109,-942.755,-200.08,286.151,-9.425899300155493,2.7839353291861073,-4.716447900466562
1.988061,205619074,-942.755,-200.08,286.151,-9.425899300155493,2.7839353291861073,-4.716447900466562
1.993428,205624441,-938.973,-193.736,288.408,-5.643899300155454,9.12793532918613,-2.4594479004665573
1.997973,205628986,-938.973,-193.736,288.408,-5.643899300155454,9.12793532918613,-2.4594479004665573
2.007936,205638949,-938.973,-193.736,288.408,-5.643899300155454,9.12793532918613,-2.4594479004665573
2.010189,205641202,-937.204,-187.148,276.452,-3.874899300155448,15.715935329186124,-14.415447900466575
2.017847,205648860,-937.204,-187.148,276.452,-3.874899300155448,15.715935329186124,-14.415447900466575
2.027001,205658014,-935.74,-186.477,278.892,-2.4108993001555064,16.386935329186116,-11.975447900466577
2.027759,205658772,-935.74,-186.477,278.892,-2.4108993001555064,16.386935329186116,-11.975447900466577
2.037574,205668587,-935.74,-186.477,278.892,-2.4108993001555064,16.386935329186116,-11.975447900466577
2.043893,205674906,-938.851,-192.699,282.369,-5.521899300155496,10.164935329186108,-8.498447900466545
2.047489,205678502,-938.851,-192.699,282.369,-5.521899300155496,10.164935329186108,-8.498447900466545
2.057433,205688446,-938.851,-192.699,282.369,-5.521899300155496,10.164935329186108,-8.498447900466545
2.060648,205691661,-945.256,-199.104,286.944,-11.926899300155469,3.7599353291861064,-3.923447900466556
2.067355,205698368,-945.256,-199.104,286.944,-11.926899300155469,3.7599353291861064,-3.923447900466556
2.077164,205708177,-945.256,-199.104,286.944,-11.926899300155469,3.7599353291861064,-3.923447900466556
2.077523,205708536,-943.06,-193.492,285.968,-9.730899300155443,9.37193532918613,-4.899447900466555
2.087188,205718201,-943.06,-193.492,285.968,-9.730899300155443,9.37193532918613,-4.899447900466555
2.094317,205725330,-937.692,-188.612,279.929,-4.3628993001555045,14.251935329186125,-10.938447900466599
2.096979,205727992,-937.692,-188.612,279.929,-4.3628993001555045,14.251935329186125,-10.938447900466599
2.106918,205737931,-937.692,-188.612,279.929,-4.3628993001555045,14.251935329186125,-10.938447900466599
2.111212,205742225,-932.507,-192.821,279.685,0.8221006998445546,10.042935329186122,-11.18244790046657
2.116834,205747847,-932.507,-192.821,279.685,0.8221006998445546,10.042935329186122,-11.18244790046657
2.126798,205757811,-932.507,-192.821,279.685,0.8221006998445546,10.042935329186122,-11.18244790046657
2.127983,205758996,-938.973,-194.712,280.112,-5.643899300155454,8.15193532918613,-10.75544790046655
2.136727,205767740,-938.973,-194.712,280.112,-5.643899300155454,8.15193532918613,-10.75544790046655
2.144785,205775798,-939.461,-196.176,279.136,-6.13189930015551,6.687935329186132,-11.731447900466549
2.14662,205777633,-939.461,-196.176,279.136,-6.13189930015551,6.687935329186132,-11.731447900466549
2.156444,205787457,-939.461,-196.176,279.136,-6.13189930015551,6.687935329186132,-11.731447900466549
2.161684,205792697,-935.313,-193.919,282.979,-1.9838993001554854,8.944935329186109,-7.888447900466588
2.166371,205797384,-935.313,-193.919,282.979,-1.9838993001554854,8.944935329186109,-7.888447900466588
2.176329,205807342,-935.313,-193.919,282.979,-1.9838993001554854,8.944935329186109,-7.888447900466588
2.178451,205809464,-935.679,-191.296,285.053,-2.349899300155471,11.567935329186128,-5.8144479004665754
2.186242,205817255,-935.679,-191.296,285.053,-2.349899300155471,11.567935329186128,-5.8144479004665754
2.195252,205826265,-935.679,-191.296,285.053,-2.349899300155471,11.567935329186128,-5.8144479004665754
2.195435,205826448,-939.705,-196.969,280.844,-6.375899300155538,5.894935329186126,-10.023447900466579
2.196159,205827172,-939.705,-196.969,280.844,-6.375899300155538,5.894935329186126,-10.023447900466579
2.205983,205836996,-939.705,-196.969,280.844,-6.375899300155538,5.894935329186126,-10.023447900466579
2.212147,205843160,-939.156,-194.956,286.273,-5.826899300155446,7.907935329186131,-4.594447900466548
2.215894,205846907,-939.156,-194.956,286.273,-5.826899300155446,7.907935329186131,-4.594447900466548
2.225857,205856870,-939.156,-194.956,286.273,-5.826899300155446,7.907935329186131,-4.594447900466548
2.22893,205859943,-938.912,-193.492,281.149,-5.582899300155532,9.37193532918613,-9.718447900466572
2.235784,205866797,-938.912,-193.492,281.149,-5.582899300155532,9.37193532918613,-9.718447900466572
2.24573,205876743,-938.912,-193.492,281.149,-5.582899300155532,9.37193532918613,-9.718447900466572
2.246119,205877132,-938.424,-194.407,277.672,-5.094899300155475,8.45693532918611,-13.195447900466547
2.255637,205886650,-938.424,-194.407,277.672,-5.094899300155475,8.45693532918611,-13.195447900466547
2.262627,205893640,-941.596,-193.004,279.197,-8.266899300155501,9.85993532918613,-11.67044790046657
2.265551,205896564,-941.596,-193.004,279.197,-8.266899300155501,9.85993532918613,-11.67044790046657
2.275365,205906378,-941.596,-193.004,279.197,-8.266899300155501,9.85993532918613,-11.67044790046657
2.279387,205910400,-941.596,-193.004,279.197,-8.266899300155501,9.85993532918613,-11.67044790046657
2.279571,205910584,-941.108,-192.516,279.685,-7.7788993001554445,10.347935329186129,-11.18244790046657
2.285324,205916337,-941.108,-192.516,279.685,-7.7788993001554445,10.347935329186129,-11.18244790046657
2.295147,205926160,-941.108,-192.516,279.685,-7.7788993001554445,10.347935329186129,-11.18244790046657
2.296314,205927327,-937.204,-192.821,285.053,-3.874899300155448,10.042935329186122,-5.8144479004665754
2.305056,205936069,-937.204,-192.821,285.053,-3.874899300155448,10.042935329186122,-5.8144479004665754
2.313124,205944137,-937.387,-195.993,286.944,-4.057899300155441,6.870935329186125,-3.923447900466556
2.314987,205946000,-937.387,-195.993,286.944,-4.057899300155441,6.870935329186125,-3.923447900466556
2.324937,205955950,-937.387,-195.993,286.944,-4.057899300155441,6.870935329186125,-3.923447900466556
2.329906,205960919,-941.657,-196.359,290.421,-8.327899300155536,6.504935329186111,-0.44644790046658045
2.334848,205965861,-941.657,-196.359,290.421,-8.327899300155536,6.504935329186111,-0.44644790046658045
2.344933,205975946,-941.657,-196.359,290.421,-8.327899300155536,6.504935329186111,-0.44644790046658045
2.346774,205977787,-941.596,-196.237,292.495,-8.266899300155501,6.626935329186125,1.6275520995334318
2.354827,205985840,-941.596,-196.237,292.495,-8.266899300155501,6.626935329186125,1.6275520995334318
2.363571,205994584,-934.093,-183.732,284.992,-0.7638993001554581,19.13193532918612,-5.875447900466554
2.364733,205995746,-934.093,-183.732,284.992,-0.7638993001554581,19.13193532918612,-5.875447900466554
2.374688,206005701,-934.093,-183.732,284.992,-0.7638993001554581,19.13193532918612,-5.875447900466554
2.380468,206011481,-932.263,-184.281,283.223,1.066100699844469,18.582935329186114,-7.6444479004665595
2.384481,206015494,-932.263,-184.281,283.223,1.066100699844469,18.582935329186114,-7.6444479004665595
2.394444,206025457,-932.263,-184.281,283.223,1.066100699844469,18.582935329186114,-7.6444479004665595
2.39724,206028253,-941.169,-193.309,281.576,-7.83989930015548,9.554935329186122,-9.291447900466551
2.404352,206035365,-941.169,-193.309,281.576,-7.83989930015548,9.554935329186122,-9.291447900466551
2.414039,206045052,-948.001,-197.64,284.504,-14.671899300155474,5.2239353291861335,-6.363447900466554
2.414255,206045268,-948.001,-197.64,284.504,-14.671899300155474,5.2239353291861335,-6.363447900466554
2.424214,206055227,-948.001,-197.64,284.504,-14.671899300155474,5.2239353291861335,-6.363447900466554
2.430935,206061948,-942.572,-191.113,282.735,-9.2428993001555,11.75093532918612,-8.132447900466559
2.434129,206065142,-942.572,-191.113,282.735,-9.2428993001555,11.75093532918612,-8.132447900466559
2.443942,206074955,-942.572,-191.113,282.735,-9.2428993001555,11.75093532918612,-8.132447900466559
2.447697,206078710,-937.875,-189.344,282.735,-4.545899300155497,13.519935329186126,-8.132447900466559
2.453868,206084881,-937.875,-189.344,282.735,-4.545899300155497,13.519935329186126,-8.132447900466559
2.463807,206094820,-937.875,-189.344,282.735,-4.545899300155497,13.519935329186126,-8.132447900466559
2.464568,206095581,-938.18,-194.163,284.199,-4.850899300155447,8.700935329186109,-6.66844790046656
2.473716,206104729,-938.18,-194.163,284.199,-4.850899300155447,8.700935329186109,-6.66844790046656
2.481376,206112389,-934.703,-195.2,285.724,-1.3738993001554718,7.663935329186131,-5.143447900466583
2.483635,206114648,-934.703,-195.2,285.724,-1.3738993001554718,7.663935329186131,-5.143447900466583
2.493457,206124470,-934.703,-195.2,285.724,-1.3738993001554718,7.663935329186131,-5.143447900466583
2.498139,206129152,-934.703,-195.2,285.724,-1.3738993001554718,7.663935329186131,-5.143447900466583
2.498323,206129336,-930.128,-193.004,286.944,3.20110069984446,9.85993532918613,-3.923447900466556
2.503374,206134387,-930.128,-193.004,286.944,3.20110069984446,9.85993532918613,-3.923447900466556
2.513331,206144344,-930.128,-193.004,286.944,3.20110069984446,9.85993532918613,-3.923447900466556
2.515055,206146068,-934.703,-192.272,284.26,-1.3738993001554718,10.591935329186128,-6.607447900466582
2.523252,206154265,-934.703,-192.272,284.26,-1.3738993001554718,10.591935329186128,-6.607447900466582
2.531866,206162879,-941.535,-196.359,285.236,-8.205899300155465,6.504935329186111,-5.631447900466583
2.533173,206164186,-941.535,-196.359,285.236,-8.205899300155465,6.504935329186111,-5.631447900466583
2.542983,206173996,-941.535,-196.359,285.236,-8.205899300155465,6.504935329186111,-5.631447900466583
2.548631,206179644,-941.535,-196.359,285.236,-8.205899300155465,6.504935329186111,-5.631447900466583
2.548814,206179827,-940.193,-198.189,284.26,-6.863899300155481,4.674935329186127,-6.607447900466582
2.552933,206183946,-940.193,-198.189,284.26,-6.863899300155481,4.674935329186127,-6.607447900466582
2.56288,206193893,-940.193,-198.189,284.26,-6.863899300155481,4.674935329186127,-6.607447900466582
2.565539,206196552,-936.472,-196.664,282.552,-3.1428993001554772,6.1999353291861325,-8.315447900466552
2.572782,206203795,-936.472,-196.664,282.552,-3.1428993001554772,6.1999353291861325,-8.315447900466552
2.582323,206213336,-931.104,-195.871,282.552,2.225100699844461,6.9929353291861105,-8.315447900466552
2.582673,206213686,-931.104,-195.871,282.552,2.225100699844461,6.9929353291861105,-8.315447900466552
2.59261,206223623,-931.104,-195.871,282.552,2.225100699844461,6.9929353291861105,-8.315447900466552
2.599184,206230197,-932.995,-197.335,283.284,0.3341006998444982,5.528935329186112,-7.583447900466581
2.602522,206233535,-932.995,-197.335,283.284,0.3341006998444982,5.528935329186112,-7.583447900466581
2.61234,206243353,-932.995,-197.335,283.284,0.3341006998444982,5.528935329186112,-7.583447900466581
2.615944,206246957,-932.995,-197.335,283.284,0.3341006998444982,5.528935329186112,-7.583447900466581
2.616127,206247140,-936.045,-196.176,285.236,-2.7158993001554563,6.687935329186132,-5.631447900466583
2.622261,206253274,-936.045,-196.176,285.236,-2.7158993001554563,6.687935329186132,-5.631447900466583
2.632205,206263218,-936.045,-196.176,285.236,-2.7158993001554563,6.687935329186132,-5.631447900466583
2.632832,206263845,-935.008,-192.028,287.188,-1.6788993001555355,10.835935329186128,-3.6794479004665845
2.642108,206273121,-935.008,-192.028,287.188,-1.6788993001555355,10.835935329186128,-3.6794479004665845
2.649622,206280635,-939.827,-192.272,287.432,-6.497899300155495,10.591935329186128,-3.4354479004665563
2.651997,206283010,-939.827,-192.272,287.432,-6.497899300155495,10.591935329186128,-3.4354479004665563
2.661935,206292948,-939.827,-192.272,287.432,-6.497899300155495,10.591935329186128,-3.4354479004665563
2.666485,206297498,-941.596,-195.932,293.532,-8.266899300155501,6.931935329186132,2.6645520995334095
2.671839,206302852,-941.596,-195.932,293.532,-8.266899300155501,6.931935329186132,2.6645520995334095
2.6818,206312813,-941.596,-195.932,293.532,-8.266899300155501,6.931935329186132,2.6645520995334095
2.683253,206314266,-941.596,-195.932,293.532,-8.266899300155501,6.931935329186132,2.6645520995334095
2.683437,206314450,-941.84,-200.019,280.356,-8.510899300155529,2.8449353291861144,-10.511447900466578
2.69161,206322623,-941.84,-200.019,280.356,-8.510899300155529,2.8449353291861144,-10.511447900466578
2.700074,206331087,-941.84,-200.019,280.356,-8.510899300155529,2.8449353291861144,-10.511447900466578
2.700257,206331270,-931.104,-192.516,289.811,2.225100699844461,10.347935329186129,-1.056447900466594
2.70152,206332533,-931.104,-192.516,289.811,2.225100699844461,10.347935329186129,-1.056447900466594
2.711461,206342474,-931.104,-192.516,289.811,2.225100699844461,10.347935329186129,-1.056447900466594
2.716958,206347971,-929.823,-191.235,279.624,3.5061006998445237,11.628935329186106,-11.243447900466549
2.721375,206352388,-929.823,-191.235,279.624,3.5061006998445237,11.628935329186106,-11.243447900466549
2.731323,206362336,-929.823,-191.235,279.624,3.5061006998445237,11.628935329186106,-11.243447900466549
2.733849,206364862,-934.947,-190.137,290.177,-1.6178993001555,12.72693532918612,-0.6904479004665518
2.741227,206372240,-934.947,-190.137,290.177,-1.6178993001555,12.72693532918612,-0.6904479004665518
2.750635,206381648,-942.572,-198.372,289.811,-9.2428993001555,4.491935329186106,-1.056447900466594
2.75112,206382133,-942.572,-198.372,289.811,-9.2428993001555,4.491935329186106,-1.056447900466594
2.761055,206392068,-942.572,-198.372,289.811,-9.2428993001555,4.491935329186106,-1.056447900466594
2.767495,206398508,-939.583,-200.019,289.628,-6.253899300155467,2.8449353291861144,-1.2394479004665868
2.770958,206401971,-939.583,-200.019,289.628,-6.253899300155467,2.8449353291861144,-1.2394479004665868
2.780904,206411917,-939.583,-200.019,289.628,-6.253899300155467,2.8449353291861144,-1.2394479004665868
2.784253,206415266,-940.376,-193.98,283.04,-7.046899300155474,8.88393532918613,-7.827447900466552
2.790687,206421700,-940.376,-193.98,283.04,-7.046899300155474,8.88393532918613,-7.827447900466552
2.800635,206431648,-940.376,-193.98,283.04,-7.046899300155474,8.88393532918613,-7.827447900466552
2.801126,206432139,-935.252,-189.161,277.855,-1.92289930015545,13.702935329186118,-13.012447900466555
2.810516,206441529,-935.252,-189.161,277.855,-1.92289930015545,13.702935329186118,-13.012447900466555
2.817901,206448914,-935.679,-189.161,281.576,-2.349899300155471,13.702935329186118,-9.291447900466551
2.82042,206451433,-935.679,-189.161,281.576,-2.349899300155471,13.702935329186118,-9.291447900466551
2.830364,206461377,-935.679,-189.161,281.576,-2.349899300155471,13.702935329186118,-9.291447900466551
2.834794,206465807,-941.596,-192.821,286.029,-8.266899300155501,10.042935329186122,-4.838447900466576
2.840297,206471310,-941.596,-192.821,286.029,-8.266899300155501,10.042935329186122,-4.838447900466576
2.85011,206481123,-941.596,-192.821,286.029,-8.266899300155501,10.042935329186122,-4.838447900466576
2.851546,206482559,-936.899,-196.359,292.251,-3.569899300155498,6.504935329186111,1.3835520995334036
2.860013,206491026,-936.899,-196.359,292.251,-3.569899300155498,6.504935329186111,1.3835520995334036
2.868472,206499485,-937.936,-196.664,289.872,-4.606899300155533,6.1999353291861325,-0.9954479004665586
2.869919,206500932,-937.936,-196.664,289.872,-4.606899300155533,6.1999353291861325,-0.9954479004665586
2.879872,206510885,-937.936,-196.664,289.872,-4.606899300155533,6.1999353291861325,-0.9954479004665586
2.885234,206516247,-932.751,-195.871,285.968,0.5781006998445264,6.9929353291861105,-4.899447900466555
2.889794,206520807,-932.751,-195.871,285.968,0.5781006998445264,6.9929353291861105,-4.899447900466555
2.899749,206530762,-932.751,-195.871,285.968,0.5781006998445264,6.9929353291861105,-4.899447900466555
2.902129,206533142,-938.729,-197.152,281.088,-5.399899300155539,5.711935329186133,-9.77944790046655
2.909668,206540681,-938.729,-197.152,281.088,-5.399899300155539,5.711935329186133,-9.77944790046655
2.91895,206549963,-938.729,-196.664,281.515,-5.399899300155539,6.1999353291861325,-9.352447900466586
2.91957,206550583,-938.729,-196.664,281.515,-5.399899300155539,6.1999353291861325,-9.352447900466586
2.929396,206560409,-938.729,-196.664,281.515,-5.399899300155539,6.1999353291861325,-9.352447900466586
2.935708,206566721,-934.825,-193.248,283.528,-1.4958993001555427,9.61593532918613,-7.339447900466553
2.939309,206570322,-934.825,-193.248,283.528,-1.4958993001555427,9.61593532918613,-7.339447900466553
2.949273,206580286,-934.825,-193.248,283.528,-1.4958993001555427,9.61593532918613,-7.339447900466553
2.9526,206583613,-933.544,-195.2,286.029,-0.21489930015547998,7.663935329186131,-4.838447900466576
2.959182,206590195,-933.544,-195.2,286.029,-0.21489930015547998,7.663935329186131,-4.838447900466576
2.969006,206600019,-933.544,-195.2,286.029,-0.21489930015547998,7.663935329186131,-4.838447900466576
2.969362,206600375,-936.289,-195.932,285.236,-2.9598993001554845,6.931935329186132,-5.631447900466583
2.979164,206610177,-936.289,-195.932,285.236,-2.9598993001554845,6.931935329186132,-5.631447900466583
2.986153,206617166,-936.289,-195.932,285.236,-2.9598993001554845,6.931935329186132,-5.631447900466583
2.986336,206617349,-937.448,-191.113,287.493,-4.118899300155476,11.75093532918612,-3.3744479004665777
2.989102,206620115,-937.448,-191.113,287.493,-4.118899300155476,11.75093532918612,-3.3744479004665777
2.998916,206629929,-937.448,-191.113,287.493,-4.118899300155476,11.75093532918612,-3.3744479004665777
3.003067,206634080,-938.607,-191.967,284.748,-5.277899300155468,10.896935329186107,-6.119447900466582
3.008832,206639845,-938.607,-191.967,284.748,-5.277899300155468,10.896935329186107,-6.119447900466582
3.018781,206649794,-938.607,-191.967,284.748,-5.277899300155468,10.896935329186107,-6.119447900466582
3.019839,206650852,-939.156,-196.42,283.467,-5.826899300155446,6.443935329186132,-7.400447900466588
3.028706,206659719,-939.156,-196.42,283.467,-5.826899300155446,6.443935329186132,-7.400447900466588
3.036754,206667767,-938.729,-195.871,286.029,-5.399899300155539,6.9929353291861105,-4.838447900466576
3.038592,206669605,-938.729,-195.871,286.029,-5.399899300155539,6.9929353291861105,-4.838447900466576
3.048535,206679548,-938.729,-195.871,286.029,-5.399899300155539,6.9929353291861105,-4.838447900466576
3.053507,206684520,-937.387,-195.383,283.955,-4.057899300155441,7.48093532918611,-6.912447900466589
3.058463,206689476,-937.387,-195.383,283.955,-4.057899300155441,7.48093532918611,-6.912447900466589
3.068268,206699281,-937.387,-195.383,283.955,-4.057899300155441,7.48093532918611,-6.912447900466589
3.070402,206701415,-937.631,-194.224,286.212,-4.301899300155469,8.63993532918613,-4.655447900466584
3.078182,206709195,-937.631,-194.224,286.212,-4.301899300155469,8.63993532918613,-4.655447900466584
3.087186,206718199,-938.485,-193.492,289.201,-5.155899300155511,9.37193532918613,-1.666447900466551
3.088078,206719091,-938.485,-193.492,289.201,-5.155899300155511,9.37193532918613,-1.666447900466551
3.098014,206729027,-938.485,-193.492,289.201,-5.155899300155511,9.37193532918613,-1.666447900466551
3.10405,206735063,-936.045,-195.017,290.421,-2.7158993001554563,7.846935329186124,-0.44644790046658045
3.107935,206738948,-936.045,-195.017,290.421,-2.7158993001554563,7.846935329186124,-0.44644790046658045
3.117882,206748895,-936.045,-195.017,290.421,-2.7158993001554563,7.846935329186124,-0.44644790046658045
3.12081,206751823,-933.605,-194.712,294.447,-0.27589930015551545,8.15193532918613,3.57955209953343
3.127778,206758791,-933.605,-194.712,294.447,-0.27589930015551545,8.15193532918613,3.57955209953343
3.137726,206768739,-933.483,-195.688,294.264,-0.1538993001554445,7.175935329186132,3.3965520995334373
3.14762,206778633,-933.483,-195.688,294.264,-0.1538993001554445,7.175935329186132,3.3965520995334373
3.154462,206785475,-938.18,-192.272,292.068,-4.850899300155447,10.591935329186128,1.200552099533411
3.157539,206788552,-938.18,-192.272,292.068,-4.850899300155447,10.591935329186128,1.200552099533411
3.167342,206798355,-938.18,-192.272,292.068,-4.850899300155447,10.591935329186128,1.200552099533411
3.17135,206802363,-940.071,-191.784,288.408,-6.741899300155524,11.079935329186128,-2.4594479004665573
3.177374,206808387,-940.071,-191.784,288.408,-6.741899300155524,11.079935329186128,-2.4594479004665573
3.187186,206818199,-940.071,-191.784,288.408,-6.741899300155524,11.079935329186128,-2.4594479004665573
3.188083,206819096,-940.071,-191.784,288.408,-6.741899300155524,11.079935329186128,-2.4594479004665573
3.188267,206819280,-939.4,-197.396,286.761,-6.0708993001554745,5.467935329186133,-4.106447900466549
3.197108,206828121,-939.4,-197.396,286.761,-6.0708993001554745,5.467935329186133,-4.106447900466549
3.205027,206836040,-938.851,-196.908,285.968,-5.521899300155496,5.955935329186133,-4.899447900466555
3.206996,206838009,-938.851,-196.908,285.968,-5.521899300155496,5.955935329186133,-4.899447900466555
3.21694,206847953,-938.851,-196.908,285.968,-5.521899300155496,5.955935329186133,-4.899447900466555
3.221759,206852772,-935.313,-193.492,287.188,-1.9838993001554854,9.37193532918613,-3.6794479004665845
3.226837,206857850,-935.313,-193.492,287.188,-1.9838993001554854,9.37193532918613,-3.6794479004665845
3.2368,206867813,-935.313,-193.492,287.188,-1.9838993001554854,9.37193532918613,-3.6794479004665845
3.238658,206869671,-935.008,-190.869,284.504,-1.6788993001555355,11.99493532918612,-6.363447900466554
3.246725,206877738,-935.008,-190.869,284.504,-1.6788993001555355,11.99493532918612,-6.363447900466554
3.255459,206886472,-932.324,-194.712,286.944,1.0051006998445473,8.15193532918613,-3.923447900466556
3.256619,206887632,-932.324,-194.712,286.944,1.0051006998445473,8.15193532918613,-3.923447900466556
3.266433,206897446,-932.324,-194.712,286.944,1.0051006998445473,8.15193532918613,-3.923447900466556
3.272348,206903361,-935.74,-196.725,288.652,-2.4108993001555064,6.1389353291861255,-2.215447900466586
3.27635,206907363,-935.74,-196.725,288.652,-2.4108993001555064,6.1389353291861255,-2.215447900466586
3.286309,206917322,-935.74,-196.725,288.652,-2.4108993001555064,6.1389353291861255,-2.215447900466586
3.289117,206920130,-936.96,-196.908,290.36,-3.6308993001555336,5.955935329186133,-0.5074479004665591
3.296227,206927240,-936.96,-196.908,290.36,-3.6308993001555336,5.955935329186133,-0.5074479004665591
3.305904,206936917,-936.96,-194.468,288.896,-3.6308993001555336,8.39593532918613,-1.9714479004665577
3.30612,206937133,-936.96,-194.468,288.896,-3.6308993001555336,8.39593532918613,-1.9714479004665577
3.316071,206947084,-936.96,-194.468,288.896,-3.6308993001555336,8.39593532918613,-1.9714479004665577
3.322777,206953790,-938.668,-194.712,284.992,-5.338899300155504,8.15193532918613,-5.875447900466554
3.325978,206956991,-938.668,-194.712,284.992,-5.338899300155504,8.15193532918613,-5.875447900466554
3.335928,206966941,-938.668,-194.712,284.992,-5.338899300155504,8.15193532918613,-5.875447900466554
3.339532,206970545,-938.668,-194.712,284.992,-5.338899300155504,8.15193532918613,-5.875447900466554
3.339717,206970730,-940.62,-196.176,283.04,-7.290899300155502,6.687935329186132,-7.827447900466552
3.34573,206976743,-940.62,-196.176,283.04,-7.290899300155502,6.687935329186132,-7.827447900466552
3.355687,206986700,-940.62,-196.176,283.04,-7.290899300155502,6.687935329186132,-7.827447900466552
3.356448,206987461,-939.705,-196.237,282.491,-6.375899300155538,6.626935329186125,-8.376447900466587
3.365596,206996609,-939.705,-196.237,282.491,-6.375899300155538,6.626935329186125,-8.376447900466587
3.373259,207004272,-936.167,-197.457,285.236,-2.8378993001555273,5.406935329186126,-5.631447900466583
3.375527,207006540,-936.167,-197.457,285.236,-2.8378993001555273,5.406935329186126,-5.631447900466583
3.385476,207016489,-936.167,-197.457,285.236,-2.8378993001555273,5.406935329186126,-5.631447900466583
3.390042,207021055,-933.056,-196.176,285.724,0.2731006998444627,6.687935329186132,-5.143447900466583
3.395389,207026402,-933.056,-196.176,285.724,0.2731006998444627,6.687935329186132,-5.143447900466583
3.405203,207036216,-933.056,-196.176,285.724,0.2731006998444627,6.687935329186132,-5.143447900466583
3.40691,207037923,-932.324,-195.383,285.785,1.0051006998445473,7.48093532918611,-5.082447900466548
3.415097,207046110,-932.324,-195.383,285.785,1.0051006998445473,7.48093532918611,-5.082447900466548
3.423707,207054720,-935.008,-190.32,285.968,-1.6788993001555355,12.543935329186127,-4.899447900466555
3.425013,207056026,-935.008,-190.32,285.968,-1.6788993001555355,12.543935329186127,-4.899447900466555
3.434959,207065972,-935.008,-190.32,285.968,-1.6788993001555355,12.543935329186127,-4.899447900466555
3.440604,207071617,-940.559,-195.688,285.175,-7.229899300155466,7.175935329186132,-5.692447900466561
3.444884,207075897,-940.559,-195.688,285.175,-7.229899300155466,7.175935329186132,-5.692447900466561
3.454825,207085838,-940.559,-195.688,285.175,-7.229899300155466,7.175935329186132,-5.692447900466561
3.457361,207088374,-942.023,-198.433,291.824,-8.693899300155522,4.430935329186127,0.9565520995334396
3.46474,207095753,-942.023,-198.433,291.824,-8.693899300155522,4.430935329186127,0.9565520995334396
3.474282,207105295,-945.439,-200.507,279.441,-12.109899300155462,2.356935329186115,-11.426447900466599
3.474633,207105646,-945.439,-200.507,279.441,-12.109899300155462,2.356935329186115,-11.426447900466599
3.484472,207115485,-945.439,-200.507,279.441,-12.109899300155462,2.356935329186115,-11.426447900466599
3.491044,207122057,-941.352,-195.2,284.26,-8.022899300155473,7.663935329186131,-6.607447900466582
3.494388,207125401,-941.352,-195.2,284.26,-8.022899300155473,7.663935329186131,-6.607447900466582
3.504344,207135357,-941.352,-195.2,284.26,-8.022899300155473,7.663935329186131,-6.607447900466582
3.507848,207138861,-928.42,-192.028,278.465,4.909100699844544,10.835935329186128,-12.402447900466598
3.514163,207145176,-928.42,-192.028,278.465,4.909100699844544,10.835935329186128,-12.402447900466598
3.52411,207155123,-928.42,-192.028,278.465,4.909100699844544,10.835935329186128,-12.402447900466598
3.524746,207155759,-935.252,-194.529,278.221,-1.92289930015545,8.334935329186123,-12.646447900466569
3.534012,207165025,-935.252,-194.529,278.221,-1.92289930015545,8.334935329186123,-12.646447900466569
3.541531,207172544,-940.193,-196.481,296.216,-6.863899300155481,6.382935329186125,5.3485520995334355
3.543906,207174919,-940.193,-196.481,296.216,-6.863899300155481,6.382935329186125,5.3485520995334355
3.553862,207184875,-940.193,-196.481,296.216,-6.863899300155481,6.382935329186125,5.3485520995334355
3.558409,207189422,-933.605,-201.544,284.016,-0.27589930015551545,1.3199353291861087,-6.851447900466553
3.563777,207194790,-933.605,-201.544,284.016,-0.27589930015551545,1.3199353291861087,-6.851447900466553
3.573598,207204611,-933.605,-201.544,284.016,-0.27589930015551545,1.3199353291861087,-6.851447900466553
3.575169,207206182,-936.96,-190.564,281.576,-3.6308993001555336,12.299935329186127,-9.291447900466551
3.583626,207214639,-936.96,-190.564,281.576,-3.6308993001555336,12.299935329186127,-9.291447900466551
3.591973,207222986,-939.583,-190.564,281.332,-6.253899300155467,12.299935329186127,-9.535447900466579
3.593432,207224445,-939.583,-190.564,281.332,-6.253899300155467,12.299935329186127,-9.535447900466579
3.603382,207234395,-939.583,-190.564,281.332,-6.253899300155467,12.299935329186127,-9.535447900466579
3.608893,207239906,-942.877,-194.651,281.271,-9.54789930015545,8.21293532918611,-9.596447900466558
3.613428,207244441,-942.877,-194.651,281.271,-9.54789930015545,8.21293532918611,-9.596447900466558
3.623377,207254390,-942.877,-194.651,281.271,-9.54789930015545,8.21293532918611,-9.596447900466558
3.62564,207256653,-940.437,-196.481,283.284,-7.107899300155509,6.382935329186125,-7.583447900466581
3.633302,207264315,-940.437,-196.481,283.284,-7.107899300155509,6.382935329186125,-7.583447900466581
3.642444,207273457,-939.644,-198.86,285.236,-6.314899300155503,4.003935329186106,-5.631447900466583
3.6432,207274213,-939.644,-198.86,285.236,-6.314899300155503,4.003935329186106,-5.631447900466583
3.653151,207284164,-939.644,-198.86,285.236,-6.314899300155503,4.003935329186106,-5.631447900466583
3.659319,207290332,-940.132,-202.764,285.724,-6.802899300155445,0.09993532918610981,-5.143447900466583
3.663062,207294075,-940.132,-202.764,285.724,-6.802899300155445,0.09993532918610981,-5.143447900466583
3.672879,207303892,-940.132,-202.764,285.724,-6.802899300155445,0.09993532918610981,-5.143447900466583
3.676214,207307227,-937.021,-199.592,281.515,-3.6918993001554554,3.271935329186107,-9.352447900466586
3.682783,207313796,-937.021,-199.592,281.515,-3.6918993001554554,3.271935329186107,-9.352447900466586
3.692726,207323739,-937.021,-199.592,281.515,-3.6918993001554554,3.271935329186107,-9.352447900466586
3.693082,207324095,-935.008,-193.98,277.916,-1.6788993001555355,8.88393532918613,-12.951447900466576
3.702612,207333625,-935.008,-193.98,277.916,-1.6788993001555355,8.88393532918613,-12.951447900466576
3.70986,207340873,-933.239,-194.956,277.977,0.09010069984447,7.907935329186131,-12.890447900466597
3.712516,207343529,-933.239,-194.956,277.977,0.09010069984447,7.907935329186131,-12.890447900466597
3.722458,207353471,-933.239,-194.956,277.977,0.09010069984447,7.907935329186131,-12.890447900466597
3.726617,207357630,-932.141,-196.664,282.125,1.18810069984454,6.1999353291861325,-8.742447900466573
3.732377,207363390,-932.141,-196.664,282.125,1.18810069984454,6.1999353291861325,-8.742447900466573
3.742323,207373336,-932.141,-196.664,282.125,1.18810069984454,6.1999353291861325,-8.742447900466573
3.743489,207374502,-934.276,-200.141,282.979,-0.9468993001554509,2.7229353291861287,-7.888447900466588
3.752205,207383218,-934.276,-200.141,282.979,-0.9468993001554509,2.7229353291861287,-7.888447900466588
3.760265,207391278,-938.363,-199.104,279.38,-5.033899300155554,3.7599353291861064,-11.487447900466577
3.762102,207393115,-938.363,-199.104,279.38,-5.033899300155554,3.7599353291861064,-11.487447900466577
3.771915,207402928,-938.363,-199.104,279.38,-5.033899300155554,3.7599353291861064,-11.487447900466577
3.777156,207408169,-940.132,-195.932,282.979,-6.802899300155445,6.931935329186132,-7.888447900466588
3.781852,207412865,-940.132,-195.932,282.979,-6.802899300155445,6.931935329186132,-7.888447900466588
3.7918,207422813,-940.132,-195.932,282.979,-6.802899300155445,6.931935329186132,-7.888447900466588
3.793928,207424941,-938.424,-198.372,279.929,-5.094899300155475,4.491935329186106,-10.938447900466599
3.801719,207432732,-938.424,-198.372,279.929,-5.094899300155475,4.491935329186106,-10.938447900466599
3.81073,207441743,-942.084,-197.579,276.147,-8.754899300155444,5.284935329186112,-14.720447900466581
3.811621,207442634,-942.084,-197.579,276.147,-8.754899300155444,5.284935329186112,-14.720447900466581
3.821584,207452597,-942.084,-197.579,276.147,-8.754899300155444,5.284935329186112,-14.720447900466581
3.827626,207458639,-940.925,-197.884,279.136,-7.595899300155452,4.979935329186134,-11.731447900466549
3.831494,207462507,-940.925,-197.884,279.136,-7.595899300155452,4.979935329186134,-11.731447900466549
3.841309,207472322,-940.925,-197.884,279.136,-7.595899300155452,4.979935329186134,-11.731447900466549
3.844388,207475401,-939.705,-194.895,277.489,-6.375899300155538,7.96893532918611,-13.378447900466597
3.851227,207482240,-939.705,-194.895,277.489,-6.375899300155538,7.96893532918611,-13.378447900466597
3.861174,207492187,-939.705,-194.895,277.489,-6.375899300155538,7.96893532918611,-13.378447900466597
3.861531,207492544,-941.047,-195.993,280.844,-7.717899300155523,6.870935329186125,-10.023447900466579
3.871056,207502069,-941.047,-195.993,280.844,-7.717899300155523,6.870935329186125,-10.023447900466579
3.878036,207509049,-939.095,-200.141,285.419,-5.7658993001555245,2.7229353291861287,-5.44844790046659
3.880961,207511974,-939.095,-200.141,285.419,-5.7658993001555245,2.7229353291861287,-5.44844790046659
3.890905,207521918,-939.095,-200.141,285.419,-5.7658993001555245,2.7229353291861287,-5.44844790046659
3.894927,207525940,-937.021,-201.117,286.7,-3.6918993001554554,1.7469353291861296,-4.167447900466584
3.900828,207531841,-937.021,-201.117,286.7,-3.6918993001554554,1.7469353291861296,-4.167447900466584
3.91077,207541783,-937.021,-201.117,286.7,-3.6918993001554554,1.7469353291861296,-4.167447900466584
3.9118,207542813,-935.496,-199.897,285.297,-2.166899300155478,2.9669353291861285,-5.570447900466547
3.92065,207551663,-935.496,-199.897,285.297,-2.166899300155478,2.9669353291861285,-5.570447900466547
3.928574,207559587,-937.265,-195.932,285.053,-3.9358993001554836,6.931935329186132,-5.8144479004665754
3.930554,207561567,-937.265,-195.932,285.053,-3.9358993001554836,6.931935329186132,-5.8144479004665754
3.940499,207571512,-937.265,-195.932,285.053,-3.9358993001554836,6.931935329186132,-5.8144479004665754
3.945333,207576346,-937.265,-195.932,285.053,-3.9358993001554836,6.931935329186132,-5.8144479004665754
3.945516,207576529,-938.424,-194.529,282.308,-5.094899300155475,8.334935329186123,-8.55944790046658
3.950308,207581321,-938.424,-194.529,282.308,-5.094899300155475,8.334935329186123,-8.55944790046658
3.960245,207591258,-938.424,-194.529,282.308,-5.094899300155475,8.334935329186123,-8.55944790046658
3.96222,207593233,-942.328,-198.86,282.735,-8.998899300155472,4.003935329186106,-8.132447900466559
3.970146,207601159,-942.328,-198.86,282.735,-8.998899300155472,4.003935329186106,-8.132447900466559
3.979012,207610025,-944.219,-203.008,277.855,-10.889899300155548,-0.14406467081388996,-13.012447900466555
3.980055,207611068,-944.219,-203.008,277.855,-10.889899300155548,-0.14406467081388996,-13.012447900466555
3.990012,207621025,-944.219,-203.008,277.855,-10.889899300155548,-0.14406467081388996,-13.012447900466555
3.99591,207626923,-935.557,-198.616,287.188,-2.2278993001555136,4.247935329186106,-3.6794479004665845
3.999928,207630941,-935.557,-198.616,287.188,-2.2278993001555136,4.247935329186106,-3.6794479004665845
4.009749,207640762,-935.557,-198.616,287.188,-2.2278993001555136,4.247935329186106,-3.6794479004665845
4.012668,207643681,-929.64,-196.42,280.112,3.6891006998445164,6.443935329186132,-10.75544790046655
4.019642,207650655,-929.64,-196.42,280.112,3.6891006998445164,6.443935329186132,-10.75544790046655
4.029596,207660609,-937.204,-197.396,276.94,-3.874899300155448,5.467935329186133,-13.927447900466575
4.03949,207670503,-937.204,-197.396,276.94,-3.874899300155448,5.467935329186133,-13.927447900466575
4.046332,207677345,-941.779,-200.873,278.404,-8.449899300155494,1.9909353291861294,-12.463447900466576
4.049391,207680404,-941.779,-200.873,278.404,-8.449899300155494,1.9909353291861294,-12.463447900466576
4.059347,207690360,-941.779,-200.873,278.404,-8.449899300155494,1.9909353291861294,-12.463447900466576
4.063122,207694135,-941.779,-200.873,278.404,-8.449899300155494,1.9909353291861294,-12.463447900466576
4.063306,207694319,-942.084,-198.677,277.855,-8.754899300155444,4.186935329186127,-13.012447900466555
4.069184,207700197,-942.084,-198.677,277.855,-8.754899300155444,4.186935329186127,-13.012447900466555
4.079147,207710160,-942.084,-198.677,277.855,-8.754899300155444,4.186935329186127,-13.012447900466555
4.080055,207711068,-935.801,-197.64,278.892,-2.471899300155542,5.2239353291861335,-11.975447900466577
4.089062,207720075,-935.801,-197.64,278.892,-2.471899300155542,5.2239353291861335,-11.975447900466577
4.096866,207727879,-933.971,-200.568,278.648,-0.6418993001555009,2.2959353291861078,-12.219447900466548
4.098983,207729996,-933.971,-200.568,278.648,-0.6418993001555009,2.2959353291861078,-12.219447900466548
4.108925,207739938,-933.971,-200.568,278.648,-0.6418993001555009,2.2959353291861078,-12.219447900466548
4.113626,207744639,-935.74,-202.825,278.404,-2.4108993001555064,0.038935329186131185,-12.463447900466576
4.118839,207749852,-935.74,-202.825,278.404,-2.4108993001555064,0.038935329186131185,-12.463447900466576
4.128647,207759660,-935.74,-202.825,278.404,-2.4108993001555064,0.038935329186131185,-12.463447900466576
4.130514,207761527,-939.217,-202.52,277.367,-5.887899300155482,0.3439353291861096,-13.500447900466554
4.138571,207769584,-939.217,-202.52,277.367,-5.887899300155482,0.3439353291861096,-13.500447900466554
4.147298,207778311,-940.193,-200.629,276.025,-6.863899300155481,2.234935329186129,-14.842447900466595
4.148457,207779470,-940.193,-200.629,276.025,-6.863899300155481,2.234935329186129,-14.842447900466595
4.158404,207789417,-940.193,-200.629,276.025,-6.863899300155481,2.234935329186129,-14.842447900466595
4.164181,207795194,-940.864,-201.544,274.256,-7.53489930015553,1.3199353291861087,-16.6114479004666
4.168328,207799341,-940.864,-201.544,274.256,-7.53489930015553,1.3199353291861087,-16.6114479004666
4.178266,207809279,-940.864,-201.544,274.256,-7.53489930015553,1.3199353291861087,-16.6114479004666
4.180941,207811954,-939.705,-202.764,275.171,-6.375899300155538,0.09993532918610981,-15.69644790046658
4.188182,207819195,-939.705,-202.764,275.171,-6.375899300155538,0.09993532918610981,-15.69644790046658
4.197863,207828876,-935.008,-203.069,275.232,-1.6788993001555355,-0.2050646708138686,-15.635447900466545
4.19808,207829093,-935.008,-203.069,275.232,-1.6788993001555355,-0.2050646708138686,-15.635447900466545
4.208015,207839028,-935.008,-203.069,275.232,-1.6788993001555355,-0.2050646708138686,-15.635447900466545
4.214591,207845604,-936.716,-202.032,275.415,-3.3868993001555054,0.8319353291861091,-15.452447900466552
4.217919,207848932,-936.716,-202.032,275.415,-3.3868993001555054,0.8319353291861091,-15.452447900466552
4.227726,207858739,-936.716,-202.032,275.415,-3.3868993001555054,0.8319353291861091,-15.452447900466552
4.231478,207862491,-937.875,-202.947,274.927,-4.545899300155497,-0.08306467081388291,-15.940447900466552
4.237643,207868656,-937.875,-202.947,274.927,-4.545899300155497,-0.08306467081388291,-15.940447900466552
4.247726,207878739,-937.875,-202.947,274.927,-4.545899300155497,-0.08306467081388291,-15.940447900466552
4.248352,207879365,-940.864,-200.751,281.576,-7.53489930015553,2.112935329186115,-9.291447900466551
4.25761,207888623,-940.864,-200.751,281.576,-7.53489930015553,2.112935329186115,-9.291447900466551
4.26513,207896143,-944.28,-206.241,270.596,-10.95089930015547,-3.377064670813894,-20.27144790046657
4.267516,207898529,-944.28,-206.241,270.596,-10.95089930015547,-3.377064670813894,-20.27144790046657
4.277456,207908469,-944.28,-206.241,270.596,-10.95089930015547,-3.377064670813894,-20.27144790046657
4.281885,207912898,-944.28,-206.241,270.596,-10.95089930015547,-3.377064670813894,-20.27144790046657
4.282068,207913081,-940.132,-199.653,274.317,-6.802899300155445,3.2109353291861282,-16.550447900466565
4.287416,207918429,-940.132,-199.653,274.317,-6.802899300155445,3.2109353291861282,-16.550447900466565
4.297236,207928249,-940.132,-199.653,274.317,-6.802899300155445,3.2109353291861282,-16.550447900466565
4.298806,207929819,-935.923,-197.945,275.232,-2.593899300155499,4.918935329186127,-15.635447900466545
4.307149,207938162,-935.923,-197.945,275.232,-2.593899300155499,4.918935329186127,-15.635447900466545
4.315624,207946637,-934.581,-198.616,285.48,-1.2518993001555145,4.247935329186106,-5.3874479004665545
4.317054,207948067,-934.581,-198.616,285.48,-1.2518993001555145,4.247935329186106,-5.3874479004665545
4.327015,207958028,-934.581,-198.616,285.48,-1.2518993001555145,4.247935329186106,-5.3874479004665545
4.332384,207963397,-936.533,-203.191,280.295,-3.2038993001555127,-0.3270646708138827,-10.572447900466557
4.336922,207967935,-936.533,-203.191,280.295,-3.2038993001555127,-0.3270646708138827,-10.572447900466557
4.346881,207977894,-936.533,-203.191,280.295,-3.2038993001555127,-0.3270646708138827,-10.572447900466557
4.349261,207980274,-933.971,-203.191,271.755,-0.6418993001555009,-0.3270646708138827,-19.112447900466577
4.356784,207987797,-933.971,-203.191,271.755,-0.6418993001555009,-0.3270646708138827,-19.112447900466577
4.366062,207997075,-940.864,-200.812,266.753,-7.53489930015553,2.051935329186108,-24.114447900466587
4.366682,207997695,-940.864,-200.812,266.753,-7.53489930015553,2.051935329186108,-24.114447900466587
4.376502,208007515,-940.864,-200.812,266.753,-7.53489930015553,2.051935329186108,-24.114447900466587
4.382932,208013945,-942.633,-197.457,272.548,-9.303899300155535,5.406935329186126,-18.31944790046657
4.386404,208017417,-942.633,-197.457,272.548,-9.303899300155535,5.406935329186126,-18.31944790046657
4.396362,208027375,-942.633,-197.457,272.548,-9.303899300155535,5.406935329186126,-18.31944790046657
4.399692,208030705,-940.559,-206.241,274.927,-7.229899300155466,-3.377064670813894,-15.940447900466552
4.406277,208037290,-940.559,-206.241,274.927,-7.229899300155466,-3.377064670813894,-15.940447900466552
4.416111,208047124,-940.559,-206.241,274.927,-7.229899300155466,-3.377064670813894,-15.940447900466552
4.416603,208047616,-936.228,-207.705,275.659,-2.898899300155449,-4.841064670813893,-15.208447900466581
4.426143,208057156,-936.228,-207.705,275.659,-2.898899300155449,-4.841064670813893,-15.208447900466581
4.433411,208064424,-935.923,-207.4,276.696,-2.593899300155499,-4.536064670813886,-14.171447900466546
4.435942,208066955,-935.923,-207.4,276.696,-2.593899300155499,-4.536064670813886,-14.171447900466546
4.445886,208076899,-935.923,-207.4,276.696,-2.593899300155499,-4.536064670813886,-14.171447900466546
4.450182,208081195,-937.631,-203.557,280.173,-4.301899300155469,-0.6930646708138681,-10.694447900466571
4.455795,208086808,-937.631,-203.557,280.173,-4.301899300155469,-0.6930646708138681,-10.694447900466571
4.465743,208096756,-937.631,-203.557,280.173,-4.301899300155469,-0.6930646708138681,-10.694447900466571
4.467044,208098057,-935.496,-205.204,277.367,-2.166899300155478,-2.340064670813888,-13.500447900466554
4.475665,208106678,-935.496,-205.204,277.367,-2.166899300155478,-2.340064670813888,-13.500447900466554
4.483859,208114872,-931.836,-200.141,280.112,1.49310069984449,2.7229353291861287,-10.75544790046655
4.485574,208116587,-931.836,-200.141,280.112,1.49310069984449,2.7229353291861287,-10.75544790046655
4.495388,208126401,-931.836,-200.141,280.112,1.49310069984449,2.7229353291861287,-10.75544790046655
4.500749,208131762,-932.263,-205.021,276.696,1.066100699844469,-2.1570646708138668,-14.171447900466546
4.505298,208136311,-932.263,-205.021,276.696,1.066100699844469,-2.1570646708138668,-14.171447900466546
4.515254,208146267,-932.263,-205.021,276.696,1.066100699844469,-2.1570646708138668,-14.171447900466546
4.51751,208148523,-942.084,-207.705,273.219,-8.754899300155444,-4.841064670813893,-17.64844790046658
4.525162,208156175,-942.084,-207.705,273.219,-8.754899300155444,-4.841064670813893,-17.64844790046658
4.534299,208165312,-942.084,-207.705,273.219,-8.754899300155444,-4.841064670813893,-17.64844790046658
4.534483,208165496,-940.62,-201.361,278.709,-7.290899300155502,1.5029353291861298,-12.15844790046657
4.535096,208166109,-940.62,-201.361,278.709,-7.290899300155502,1.5029353291861298,-12.15844790046657
4.545053,208176066,-940.62,-201.361,278.709,-7.290899300155502,1.5029353291861298,-12.15844790046657
4.551229,208182242,-933.849,-203.496,278.404,-0.5198993001555436,-0.6320646708138895,-12.463447900466576
4.554829,208185842,-933.849,-203.496,278.404,-0.5198993001555436,-0.6320646708138895,-12.463447900466576
4.564784,208195797,-933.849,-203.496,278.404,-0.5198993001555436,-0.6320646708138895,-12.463447900466576
4.567992,208199005,-934.52,-205.021,282.308,-1.190899300155479,-2.1570646708138668,-8.55944790046658
4.574713,208205726,-934.52,-205.021,282.308,-1.190899300155479,-2.1570646708138668,-8.55944790046658
4.584661,208215674,-934.52,-205.021,282.308,-1.190899300155479,-2.1570646708138668,-8.55944790046658
4.585019,208216032,-944.28,-207.4,275.964,-10.95089930015547,-4.536064670813886,-14.903447900466574
4.594555,208225568,-944.28,-207.4,275.964,-10.95089930015547,-4.536064670813886,-14.903447900466574
4.601682,208232695,-939.827,-198.86,278.831,-6.497899300155495,4.003935329186106,-12.036447900466555
4.60448,208235493,-939.827,-198.86,278.831,-6.497899300155495,4.003935329186106,-12.036447900466555
4.614308,208245321,-939.827,-198.86,278.831,-6.497899300155495,4.003935329186106,-12.036447900466555
4.618462,208249475,-935.313,-196.237,274.5,-1.9838993001554854,6.626935329186125,-16.367447900466573
4.624218,208255231,-935.313,-196.237,274.5,-1.9838993001554854,6.626935329186125,-16.367447900466573
4.634174,208265187,-935.313,-196.237,274.5,-1.9838993001554854,6.626935329186125,-16.367447900466573
4.635357,208266370,-938.729,-202.276,275.964,-5.399899300155539,0.5879353291861094,-14.903447900466574
4.644097,208275110,-938.729,-202.276,275.964,-5.399899300155539,0.5879353291861094,-14.903447900466574
4.652155,208283168,-935.74,-204.96,279.929,-2.4108993001555064,-2.096064670813888,-10.938447900466599
4.653991,208285004,-935.74,-204.96,279.929,-2.4108993001555064,-2.096064670813888,-10.938447900466599
4.663812,208294825,-935.74,-204.96,279.929,-2.4108993001555064,-2.096064670813888,-10.938447900466599
4.669046,208300059,-933.483,-204.228,284.443,-0.1538993001554445,-1.3640646708138888,-6.424447900466589
4.673741,208304754,-933.483,-204.228,284.443,-0.1538993001554445,-1.3640646708138888,-6.424447900466589
4.683689,208314702,-933.483,-204.228,284.443,-0.1538993001554445,-1.3640646708138888,-6.424447900466589
4.685809,208316822,-937.631,-206.241,284.931,-4.301899300155469,-3.377064670813894,-5.9364479004665895
4.693592,208324605,-937.631,-206.241,284.931,-4.301899300155469,-3.377064670813894,-5.9364479004665895
4.702591,208333604,-939.095,-203.679,283.04,-5.7658993001555245,-0.8150646708138822,-7.827447900466552
4.703481,208334494,-939.095,-203.679,283.04,-5.7658993001555245,-0.8150646708138822,-7.827447900466552
4.71342,208344433,-939.095,-203.679,283.04,-5.7658993001555245,-0.8150646708138822,-7.827447900466552
4.719455,208350468,-938.607,-201.483,282.369,-5.277899300155468,1.3809353291861157,-8.498447900466545
4.723332,208354345,-938.607,-201.483,282.369,-5.277899300155468,1.3809353291861157,-8.498447900466545
4.733284,208364297,-938.607,-201.483,282.369,-5.277899300155468,1.3809353291861157,-8.498447900466545
4.736349,208367362,-942.511,-207.644,272.548,-9.181899300155465,-4.780064670813886,-18.31944790046657
4.743187,208374200,-942.511,-207.644,272.548,-9.181899300155465,-4.780064670813886,-18.31944790046657
4.752998,208384011,-942.511,-207.644,272.548,-9.181899300155465,-4.780064670813886,-18.31944790046657
4.753354,208384367,-940.864,-202.093,278.831,-7.53489930015553,0.7709353291861305,-12.036447900466555
4.763015,208394028,-940.864,-202.093,278.831,-7.53489930015553,0.7709353291861305,-12.036447900466555
4.769995,208401008,-932.08,-203.313,277.123,1.2491006998444618,-0.44906467081386836,-13.744447900466582
4.77292,208403933,-932.08,-203.313,277.123,1.2491006998444618,-0.44906467081386836,-13.744447900466582
4.782726,208413739,-932.08,-203.313,277.123,1.2491006998444618,-0.44906467081386836,-13.744447900466582
4.786751,208417764,-931.348,-201.788,280.539,1.9811006998445464,1.075935329186109,-10.328447900466585
4.792645,208423658,-931.348,-201.788,280.539,1.9811006998445464,1.075935329186109,-10.328447900466585
4.802593,208433606,-931.348,-201.788,280.539,1.9811006998445464,1.075935329186109,-10.328447900466585
4.803625,208434638,-936.899,-204.045,276.452,-3.569899300155498,-1.1810646708138677,-14.415447900466575
4.812475,208443488,-936.899,-204.045,276.452,-3.569899300155498,-1.1810646708138677,-14.415447900466575
4.8204,208451413,-940.559,-206.729,276.452,-7.229899300155466,-3.8650646708138936,-14.415447900466575
4.822381,208453394,-940.559,-206.729,276.452,-7.229899300155466,-3.8650646708138936,-14.415447900466575
4.832321,208463334,-940.559,-206.729,276.452,-7.229899300155466,-3.8650646708138936,-14.415447900466575
4.837293,208468306,-940.132,-205.692,275.232,-6.802899300155445,-2.8280646708138875,-15.635447900466545
4.842256,208473269,-940.132,-205.692,275.232,-6.802899300155445,-2.8280646708138875,-15.635447900466545
4.852205,208483218,-940.132,-205.692,275.232,-6.802899300155445,-2.8280646708138875,-15.635447900466545
4.854047,208485060,-935.435,-202.703,275.537,-2.1058993001554427,0.16093532918611686,-15.330447900466595
4.862109,208493122,-935.435,-202.703,275.537,-2.1058993001554427,0.16093532918611686,-15.330447900466595
4.870972,208501985,-934.032,-204.167,276.452,-0.7028993001555364,-1.3030646708138818,-14.415447900466575
4.871998,208503011,-934.032,-204.167,276.452,-0.7028993001555364,-1.3030646708138818,-14.415447900466575
4.88207,208513083,-934.032,-204.167,276.452,-0.7028993001555364,-1.3030646708138818,-14.415447900466575
4.887702,208518715,-937.692,-206.912,274.439,-4.3628993001555045,-4.048064670813886,-16.42844790046655
4.891988,208523001,-937.692,-206.912,274.439,-4.3628993001555045,-4.048064670813886,-16.42844790046655
4.9018,208532813,-937.692,-206.912,274.439,-4.3628993001555045,-4.048064670813886,-16.42844790046655
4.904603,208535616,-935.313,-206.424,271.633,-1.9838993001554854,-3.560064670813887,-19.23444790046659
4.911719,208542732,-935.313,-206.424,271.633,-1.9838993001554854,-3.560064670813887,-19.23444790046659
4.921406,208552419,-935.069,-205.631,269.376,-1.7398993001554572,-2.7670646708138804,-21.491447900466596
4.921622,208552635,-935.069,-205.631,269.376,-1.7398993001554572,-2.7670646708138804,-21.491447900466596
4.931584,208562597,-935.069,-205.631,269.376,-1.7398993001554572,-2.7670646708138804,-21.491447900466596
4.938168,208569181,-935.069,-205.631,269.376,-1.7398993001554572,-2.7670646708138804,-21.491447900466596
4.938352,208569365,-939.4,-206.729,270.291,-6.0708993001554745,-3.8650646708138936,-20.576447900466576
4.941524,208572537,-939.4,-206.729,270.291,-6.0708993001554745,-3.8650646708138936,-20.576447900466576
4.951324,208582337,-939.4,-206.729,270.291,-6.0708993001554745,-3.8650646708138936,-20.576447900466576
4.955066,208586079,-940.132,-207.4,273.28,-6.802899300155445,-4.536064670813886,-17.5874479004666
4.961244,208592257,-940.132,-207.4,273.28,-6.802899300155445,-4.536064670813886,-17.5874479004666
4.971188,208602201,-940.132,-207.4,273.28,-6.802899300155445,-4.536064670813886,-17.5874479004666
4.971949,208602962,-943.06,-207.461,275.476,-9.730899300155443,-4.597064670813893,-15.391447900466574
4.981097,208612110,-943.06,-207.461,275.476,-9.730899300155443,-4.597064670813893,-15.391447900466574
4.988743,208619756,-937.936,-203.984,277.489,-4.606899300155533,-1.120064670813889,-13.378447900466597
4.991008,208622021,-937.936,-203.984,277.489,-4.606899300155533,-1.120064670813889,-13.378447900466597
5.000963,208631976,-937.936,-203.984,277.489,-4.606899300155533,-1.120064670813889,-13.378447900466597
5.005504,208636517,-937.997,-208.315,271.999,-4.6678993001554545,-5.451064670813878,-18.86844790046655
5.010871,208641884,-937.997,-208.315,271.999,-4.6678993001554545,-5.451064670813878,-18.86844790046655
5.020693,208651706,-937.997,-208.315,271.999,-4.6678993001554545,-5.451064670813878,-18.86844790046655
5.022399,208653412,-939.095,-206.18,271.084,-5.7658993001555245,-3.316064670813887,-19.78344790046657
5.030586,208661599,-939.095,-206.18,271.084,-5.7658993001555245,-3.316064670813887,-19.78344790046657
5.039191,208670204,-935.252,-202.764,271.084,-1.92289930015545,0.09993532918610981,-19.78344790046657
5.040508,208671521,-935.252,-202.764,271.084,-1.92289930015545,0.09993532918610981,-19.78344790046657
5.050461,208681474,-935.252,-202.764,271.084,-1.92289930015545,0.09993532918610981,-19.78344790046657
5.055971,208686984,-935.252,-202.764,271.084,-1.92289930015545,0.09993532918610981,-19.78344790046657
5.056155,208687168,-930.372,-203.191,276.696,2.9571006998445455,-0.3270646708138827,-14.171447900466546
5.060388,208691401,-930.372,-203.191,276.696,2.9571006998445455,-0.3270646708138827,-14.171447900466546
5.070202,208701215,-930.372,-203.191,276.696,2.9571006998445455,-0.3270646708138827,-14.171447900466546
5.072871,208703884,-932.629,-209.047,278.404,0.7001006998444836,-6.183064670813877,-12.463447900466576
5.080127,208711140,-932.629,-209.047,278.404,0.7001006998444836,-6.183064670813877,-12.463447900466576
5.089667,208720680,-939.156,-206.241,273.463,-5.826899300155446,-3.377064670813894,-17.40444790046655
5.09002,208721033,-939.156,-206.241,273.463,-5.826899300155446,-3.377064670813894,-17.40444790046655
5.09997,208730983,-939.156,-206.241,273.463,-5.826899300155446,-3.377064670813894,-17.40444790046655
5.106547,208737560,-940.437,-205.143,266.875,-7.107899300155509,-2.279064670813881,-23.992447900466573
5.109883,208740896,-940.437,-205.143,266.875,-7.107899300155509,-2.279064670813881,-23.992447900466573
5.119825,208750838,-940.437,-205.143,266.875,-7.107899300155509,-2.279064670813881,-23.992447900466573
5.123307,208754320,-939.156,-205.021,261.751,-5.826899300155446,-2.1570646708138668,-29.116447900466596
5.129737,208760750,-939.156,-205.021,261.751,-5.826899300155446,-2.1570646708138668,-29.116447900466596
5.139551,208770564,-939.156,-205.021,261.751,-5.826899300155446,-2.1570646708138668,-29.116447900466596
5.140178,208771191,-940.681,-208.376,266.021,-7.351899300155537,-5.512064670813885,-24.846447900466558
5.149571,208780584,-940.681,-208.376,266.021,-7.351899300155537,-5.512064670813885,-24.846447900466558
5.156957,208787970,-939.827,-211.975,274.5,-6.497899300155495,-9.111064670813874,-16.367447900466573
5.159495,208790508,-939.827,-211.975,274.5,-6.497899300155495,-9.111064670813874,-16.367447900466573
5.169304,208800317,-939.827,-211.975,274.5,-6.497899300155495,-9.111064670813874,-16.367447900466573
5.173862,208804875,-940.315,-210.633,275.476,-6.985899300155552,-7.76906467081389,-15.391447900466574
5.179219,208810232,-940.315,-210.633,275.476,-6.985899300155552,-7.76906467081389,-15.391447900466574
5.189174,208820187,-940.315,-210.633,275.476,-6.985899300155552,-7.76906467081389,-15.391447900466574
5.190627,208821640,-940.559,-205.387,276.025,-7.229899300155466,-2.5230646708138806,-14.842447900466595
5.199101,208830114,-940.559,-205.387,276.025,-7.229899300155466,-2.5230646708138806,-14.842447900466595
5.207431,208838444,-936.899,-204.045,271.999,-3.569899300155498,-1.1810646708138677,-18.86844790046655
5.208997,208840010,-936.899,-204.045,271.999,-3.569899300155498,-1.1810646708138677,-18.86844790046655
5.218944,208849957,-936.899,-204.045,271.999,-3.569899300155498,-1.1810646708138677,-18.86844790046655
5.224317,208855330,-931.165,-205.143,272.609,2.164100699844539,-2.279064670813881,-18.258447900466592
5.228868,208859881,-931.165,-205.143,272.609,2.164100699844539,-2.279064670813881,-18.258447900466592
5.238672,208869685,-931.165,-205.143,272.609,2.164100699844539,-2.279064670813881,-18.258447900466592
5.241076,208872089,-931.165,-205.143,272.609,2.164100699844539,-2.279064670813881,-18.258447900466592
5.24126,208872273,-931.592,-204.899,270.84,1.7371006998445182,-2.035064670813881,-20.027447900466598
5.24861,208879623,-931.592,-204.899,270.84,1.7371006998445182,-2.035064670813881,-20.027447900466598
5.258018,208889031,-937.021,-208.376,269.803,-3.6918993001554554,-5.512064670813885,-21.064447900466575
5.258503,208889516,-937.021,-208.376,269.803,-3.6918993001554554,-5.512064670813885,-21.064447900466575
5.268472,208899485,-937.021,-208.376,269.803,-3.6918993001554554,-5.512064670813885,-21.064447900466575
5.274781,208905794,-941.901,-211.06,269.925,-8.57189930015545,-8.196064670813882,-20.94244790046656
5.278393,208909406,-941.901,-211.06,269.925,-8.57189930015545,-8.196064670813882,-20.94244790046656
5.288219,208919232,-941.901,-211.06,269.925,-8.57189930015545,-8.196064670813882,-20.94244790046656
5.291562,208922575,-942.999,-210.633,268.156,-9.669899300155521,-7.76906467081389,-22.711447900466567
5.298149,208929162,-942.999,-210.633,268.156,-9.669899300155521,-7.76906467081389,-22.711447900466567
5.308097,208939110,-942.999,-210.633,268.156,-9.669899300155521,-7.76906467081389,-22.711447900466567
5.308453,208939466,-938.912,-207.4,273.341,-5.582899300155532,-4.536064670813886,-17.526447900466565
5.318,208949013,-938.912,-207.4,273.341,-5.582899300155532,-4.536064670813886,-17.526447900466565
5.325261,208956274,-940.376,-209.84,272.792,-7.046899300155474,-6.976064670813884,-18.0754479004666
5.327915,208958928,-940.376,-209.84,272.792,-7.046899300155474,-6.976064670813884,-18.0754479004666
5.337861,208968874,-940.376,-209.84,272.792,-7.046899300155474,-6.976064670813884,-18.0754479004666
5.342156,208973169,-938.851,-210.267,270.657,-5.521899300155496,-7.403064670813876,-20.21044790046659
5.347788,208978801,-938.851,-210.267,270.657,-5.521899300155496,-7.403064670813876,-20.21044790046659
5.357593,208988606,-938.851,-210.267,270.657,-5.521899300155496,-7.403064670813876,-20.21044790046659
5.358894,208989907,-938.729,-206.363,270.291,-5.399899300155539,-3.4990646708138797,-20.576447900466576
5.36761,208998623,-938.729,-206.363,270.291,-5.399899300155539,-3.4990646708138797,-20.576447900466576
5.375805,209006818,-939.156,-203.801,270.352,-5.826899300155446,-0.9370646708138679,-20.515447900466597
5.377515,209008528,-939.156,-203.801,270.352,-5.826899300155446,-0.9370646708138679,-20.515447900466597
5.387323,209018336,-939.156,-203.801,270.352,-5.826899300155446,-0.9370646708138679,-20.515447900466597
5.392563,209023576,-936.045,-207.339,272.243,-2.7158993001554563,-4.475064670813879,-18.624447900466578
5.39725,209028263,-936.045,-207.339,272.243,-2.7158993001554563,-4.475064670813879,-18.624447900466578
5.407188,209038201,-936.045,-207.339,272.243,-2.7158993001554563,-4.475064670813879,-18.624447900466578
5.409435,209040448,-934.093,-210.145,276.147,-0.7638993001554581,-7.28106467081389,-14.720447900466581
5.41707,209048083,-934.093,-210.145,276.147,-0.7638993001554581,-7.28106467081389,-14.720447900466581
5.426209,209057222,-932.812,-208.437,277.123,0.5171006998444909,-5.573064670813892,-13.744447900466582
5.426965,209057978,-932.812,-208.437,277.123,0.5171006998444909,-5.573064670813892,-13.744447900466582
5.436916,209067929,-932.812,-208.437,277.123,0.5171006998444909,-5.573064670813892,-13.744447900466582
5.443102,209074115,-936.472,-207.217,277.367,-3.1428993001554772,-4.353064670813893,-13.500447900466554
5.446844,209077857,-936.472,-207.217,277.367,-3.1428993001554772,-4.353064670813893,-13.500447900466554
5.456691,209087704,-936.472,-207.217,277.367,-3.1428993001554772,-4.353064670813893,-13.500447900466554
5.459906,209090919,-940.62,-207.339,275.964,-7.290899300155502,-4.475064670813879,-14.903447900466574
5.466602,209097615,-940.62,-207.339,275.964,-7.290899300155502,-4.475064670813879,-14.903447900466574
5.476551,209107564,-940.62,-207.339,275.964,-7.290899300155502,-4.475064670813879,-14.903447900466574
5.476908,209107921,-941.779,-210.389,274.683,-8.449899300155494,-7.52506467081389,-16.18444790046658
5.486446,209117459,-941.779,-210.389,274.683,-8.449899300155494,-7.52506467081389,-16.18444790046658
5.493571,209124584,-939.156,-209.901,273.768,-5.826899300155446,-7.037064670813891,-17.0994479004666
5.496362,209127375,-939.156,-209.901,273.768,-5.826899300155446,-7.037064670813891,-17.0994479004666
5.50631,209137323,-939.156,-209.901,273.768,-5.826899300155446,-7.037064670813891,-17.0994479004666
5.510333,209141346,-932.995,-207.156,273.951,0.3341006998444982,-4.292064670813886,-16.91644790046655
5.516367,209147380,-932.995,-207.156,273.951,0.3341006998444982,-4.292064670813886,-16.91644790046655
5.526308,209157321,-932.995,-207.156,273.951,0.3341006998444982,-4.292064670813886,-16.91644790046655
5.527218,209158231,-937.631,-205.997,273.768,-4.301899300155469,-3.1330646708138943,-17.0994479004666
5.536224,209167237,-937.631,-205.997,273.768,-4.301899300155469,-3.1330646708138943,-17.0994479004666
5.544012,209175025,-936.716,-207.705,274.805,-3.3868993001555054,-4.841064670813893,-16.062447900466566
5.546135,209177148,-936.716,-207.705,274.805,-3.3868993001555054,-4.841064670813893,-16.062447900466566
5.556092,209187105,-936.716,-207.705,274.805,-3.3868993001555054,-4.841064670813893,-16.062447900466566
5.56091,209191923,-937.204,-211.243,274.805,-3.874899300155448,-8.379064670813875,-16.062447900466566
5.565874,209196887,-937.204,-211.243,274.805,-3.874899300155448,-8.379064670813875,-16.062447900466566
5.575843,209206856,-937.204,-211.243,274.805,-3.874899300155448,-8.379064670813875,-16.062447900466566
5.57769,209208703,-938.18,-213.927,276.696,-4.850899300155447,-11.063064670813873,-14.171447900466546
5.585759,209216772,-938.18,-213.927,276.696,-4.850899300155447,-11.063064670813873,-14.171447900466546
5.594507,209225520,-933.971,-205.936,276.94,-0.6418993001555009,-3.0720646708138872,-13.927447900466575
5.59567,209226683,-933.971,-205.936,276.94,-0.6418993001555009,-3.0720646708138872,-13.927447900466575
5.605618,209236631,-933.971,-205.936,276.94,-0.6418993001555009,-3.0720646708138872,-13.927447900466575
5.611398,209242411,-933.056,-205.692,271.328,0.2731006998444627,-2.8280646708138875,-19.539447900466598
5.615546,209246559,-933.056,-205.692,271.328,0.2731006998444627,-2.8280646708138875,-19.539447900466598
5.625364,209256377,-933.056,-205.692,271.328,0.2731006998444627,-2.8280646708138875,-19.539447900466598
5.628173,209259186,-936.533,-214.049,272.304,-3.2038993001555127,-11.185064670813887,-18.5634479004666
5.635281,209266294,-936.533,-214.049,272.304,-3.2038993001555127,-11.185064670813887,-18.5634479004666
5.644959,209275972,-938.729,-211.792,272.609,-5.399899300155539,-8.928064670813882,-18.258447900466592
5.645175,209276188,-938.729,-211.792,272.609,-5.399899300155539,-8.928064670813882,-18.258447900466592
5.655111,209286124,-938.729,-211.792,272.609,-5.399899300155539,-8.928064670813882,-18.258447900466592
5.661822,209292835,-932.812,-203.74,271.145,0.5171006998444909,-0.8760646708138893,-19.72244790046659
5.665025,209296038,-932.812,-203.74,271.145,0.5171006998444909,-0.8760646708138893,-19.72244790046659
5.674974,209305987,-932.812,-203.74,271.145,0.5171006998444909,-0.8760646708138893,-19.72244790046659
5.678714,209309727,-933.361,-208.071,273.28,-0.031899300155487254,-5.207064670813878,-17.5874479004666
5.684878,209315891,-933.361,-208.071,273.28,-0.031899300155487254,-5.207064670813878,-17.5874479004666
5.694824,209325837,-933.361,-208.071,273.28,-0.031899300155487254,-5.207064670813878,-17.5874479004666
5.69545,209326463,-940.62,-214.72,273.951,-7.290899300155502,-11.856064670813879,-16.91644790046655
5.704707,209335720,-940.62,-214.72,273.951,-7.290899300155502,-11.856064670813879,-16.91644790046655
5.712359,209343372,-939.888,-211.548,274.805,-6.558899300155531,-8.684064670813882,-16.062447900466566
5.714599,209345612,-939.888,-211.548,274.805,-6.558899300155531,-8.684064670813882,-16.062447900466566
5.724552,209355565,-939.888,-211.548,274.805,-6.558899300155531,-8.684064670813882,-16.062447900466566
5.729117,209360130,-937.692,-208.376,277.184,-4.3628993001555045,-5.512064670813885,-13.683447900466547
5.734472,209365485,-937.692,-208.376,277.184,-4.3628993001555045,-5.512064670813885,-13.683447900466547
5.744282,209375295,-937.692,-208.376,277.184,-4.3628993001555045,-5.512064670813885,-13.683447900466547
5.745999,209377012,-938.241,-210.816,267.729,-4.911899300155483,-7.952064670813883,-23.138447900466588
5.754196,209385209,-938.241,-210.816,267.729,-4.911899300155483,-7.952064670813883,-23.138447900466588
5.762808,209393821,-932.873,-204.533,273.585,0.45610069984445545,-1.6690646708138672,-17.282447900466593
5.764103,209395116,-932.873,-204.533,273.585,0.45610069984445545,-1.6690646708138672,-17.282447900466593
5.774055,209405068,-932.873,-204.533,273.585,0.45610069984445545,-1.6690646708138672,-17.282447900466593
5.779554,209410567,-932.873,-204.533,273.585,0.45610069984445545,-1.6690646708138672,-17.282447900466593
5.779738,209410751,-935.679,-207.4,271.084,-2.349899300155471,-4.536064670813886,-19.78344790046657
5.783982,209414995,-935.679,-207.4,271.084,-2.349899300155471,-4.536064670813886,-19.78344790046657
5.793799,209424812,-935.679,-207.4,271.084,-2.349899300155471,-4.536064670813886,-19.78344790046657
5.796475,209427488,-937.448,-207.4,284.016,-4.118899300155476,-4.536064670813886,-6.851447900466553
5.803718,209434731,-937.448,-207.4,284.016,-4.118899300155476,-4.536064670813886,-6.851447900466553
5.813268,209444281,-938.668,-211.975,278.648,-5.338899300155504,-9.111064670813874,-12.219447900466548
5.813619,209444632,-938.668,-211.975,278.648,-5.338899300155504,-9.111064670813874,-12.219447900466548
5.823555,209454568,-938.668,-211.975,278.648,-5.338899300155504,-9.111064670813874,-12.219447900466548
5.830131,209461144,-934.032,-204.777,274.256,-0.7028993001555364,-1.913064670813867,-16.6114479004666
5.83346,209464473,-934.032,-204.777,274.256,-0.7028993001555364,-1.913064670813867,-16.6114479004666
5.8434,209474413,-934.032,-204.777,274.256,-0.7028993001555364,-1.913064670813867,-16.6114479004666
5.846886,209477899,-932.019,-206.363,270.596,1.3101006998444973,-3.4990646708138797,-20.27144790046657
5.853319,209484332,-932.019,-206.363,270.596,1.3101006998444973,-3.4990646708138797,-20.27144790046657
5.863268,209494281,-932.019,-206.363,270.596,1.3101006998444973,-3.4990646708138797,-20.27144790046657
5.86376,209494773,-936.228,-207.888,270.413,-2.898899300155449,-5.024064670813885,-20.454447900466562
5.87315,209504163,-936.228,-207.888,270.413,-2.898899300155449,-5.024064670813885,-20.454447900466562
5.880535,209511548,-943.243,-211.548,274.256,-9.913899300155549,-8.684064670813882,-16.6114479004666
5.883053,209514066,-943.243,-211.548,274.256,-9.913899300155549,-8.684064670813882,-16.6114479004666
5.892998,209524011,-943.243,-211.548,274.256,-9.913899300155549,-8.684064670813882,-16.6114479004666
5.897428,209528441,-943.609,-212.829,278.587,-10.279899300155535,-9.965064670813888,-12.280447900466584
5.902796,209533809,-943.609,-212.829,278.587,-10.279899300155535,-9.965064670813888,-12.280447900466584
5.912745,209543758,-943.609,-212.829,278.587,-10.279899300155535,-9.965064670813888,-12.280447900466584
5.914181,209545194,-943.609,-212.829,278.587,-10.279899300155535,-9.965064670813888,-12.280447900466584
5.914364,209545377,-943.792,-212.463,278.892,-10.462899300155527,-9.599064670813874,-11.975447900466577
5.922663,209553676,-943.792,-212.463,278.892,-10.462899300155527,-9.599064670813874,-11.975447900466577
5.931126,209562139,-939.095,-208.132,278.404,-5.7658993001555245,-5.268064670813885,-12.463447900466576
5.932556,209563569,-939.095,-208.132,278.404,-5.7658993001555245,-5.268064670813885,-12.463447900466576
5.942519,209573532,-939.095,-208.132,278.404,-5.7658993001555245,-5.268064670813885,-12.463447900466576
5.947869,209578882,-931.104,-203.984,274.988,2.225100699844461,-1.120064670813889,-15.879447900466573
5.952427,209583440,-931.104,-203.984,274.988,2.225100699844461,-1.120064670813889,-15.879447900466573
5.962384,209593397,-931.104,-203.984,274.988,2.225100699844461,-1.120064670813889,-15.879447900466573
5.964766,209595779,-932.08,-204.289,273.463,1.2491006998444618,-1.4250646708138675,-17.40444790046655
5.972276,209603289,-932.08,-204.289,273.463,1.2491006998444618,-1.4250646708138675,-17.40444790046655
5.981557,209612570,-936.96,-207.644,272.792,-3.6308993001555336,-4.780064670813886,-18.0754479004666
5.982177,209613190,-936.96,-207.644,272.792,-3.6308993001555336,-4.780064670813886,-18.0754479004666
5.992019,209623032,-936.96,-207.644,272.792,-3.6308993001555336,-4.780064670813886,-18.0754479004666
5.998334,209629347,-935.069,-209.596,274.988,-1.7398993001554572,-6.732064670813884,-15.879447900466573
6.001922,209632935,-935.069,-209.596,274.988,-1.7398993001554572,-6.732064670813884,-15.879447900466573
6.01188,209642893,-935.069,-209.596,274.988,-1.7398993001554572,-6.732064670813884,-15.879447900466573
6.015231,209646244,-934.032,-212.524,274.805,-0.7028993001555364,-9.660064670813881,-16.062447900466566
6.021814,209652827,-934.032,-212.524,274.805,-0.7028993001555364,-9.660064670813881,-16.062447900466566
6.031774,209662787,-934.032,-212.524,274.805,-0.7028993001555364,-9.660064670813881,-16.062447900466566
6.03213,209663143,-939.156,-209.352,273.097,-5.826899300155446,-6.488064670813884,-17.770447900466593
6.041694,209672707,-939.156,-209.352,273.097,-5.826899300155446,-6.488064670813884,-17.770447900466593
6.048815,209679828,-939.705,-209.108,273.768,-6.375899300155538,-6.244064670813884,-17.0994479004666
6.051479,209682492,-939.705,-209.108,273.768,-6.375899300155538,-6.244064670813884,-17.0994479004666
6.061428,209692441,-939.705,-209.108,273.768,-6.375899300155538,-6.244064670813884,-17.0994479004666
6.065724,209696737,-938.729,-208.437,277.977,-5.399899300155539,-5.573064670813892,-12.890447900466597
6.07136,209702373,-938.729,-208.437,277.977,-5.399899300155539,-5.573064670813892,-12.890447900466597
6.081309,209712322,-938.729,-208.437,277.977,-5.399899300155539,-5.573064670813892,-12.890447900466597
6.082498,209713511,-935.191,-207.4,277.428,-1.8618993001555282,-4.536064670813886,-13.439447900466575
6.091226,209722239,-935.191,-207.4,277.428,-1.8618993001555282,-4.536064670813886,-13.439447900466575
6.099282,209730295,-935.191,-207.4,277.428,-1.8618993001555282,-4.536064670813886,-13.439447900466575
6.099466,209730479,-937.875,-208.376,277.001,-4.545899300155497,-5.512064670813885,-13.866447900466596
6.101134,209732147,-937.875,-208.376,277.001,-4.545899300155497,-5.512064670813885,-13.866447900466596
6.110958,209741971,-937.875,-208.376,277.001,-4.545899300155497,-5.512064670813885,-13.866447900466596
6.116179,209747192,-936.96,-207.217,276.391,-3.6308993001555336,-4.353064670813893,-14.476447900466553
6.120873,209751886,-936.96,-207.217,276.391,-3.6308993001555336,-4.353064670813893,-14.476447900466553
6.130829,209761842,-936.96,-207.217,276.391,-3.6308993001555336,-4.353064670813893,-14.476447900466553
6.132939,209763952,-936.96,-207.217,276.391,-3.6308993001555336,-4.353064670813893,-14.476447900466553
6.133122,209764135,-932.08,-206.668,275.293,1.2491006998444618,-3.8040646708138866,-15.574447900466566
6.140748,209771761,-932.08,-206.668,275.293,1.2491006998444618,-3.8040646708138866,-15.574447900466566
6.149769,209780782,-932.08,-206.668,275.293,1.2491006998444618,-3.8040646708138866,-15.574447900466566
6.149953,209780966,-928.664,-206.973,277.184,4.6651006998445155,-4.109064670813893,-13.683447900466547
6.15081,209781823,-928.664,-206.973,277.184,4.6651006998445155,-4.109064670813893,-13.683447900466547
6.160778,209791791,-928.664,-206.973,277.184,4.6651006998445155,-4.109064670813893,-13.683447900466547
6.166684,209797697,-933.544,-208.376,281.149,-0.21489930015547998,-5.512064670813885,-9.718447900466572
6.170571,209801584,-933.544,-208.376,281.149,-0.21489930015547998,-5.512064670813885,-9.718447900466572
6.180515,209811528,-933.544,-208.376,281.149,-0.21489930015547998,-5.512064670813885,-9.718447900466572
6.183444,209814457,-939.949,-208.437,284.748,-6.619899300155453,-5.573064670813892,-6.119447900466582
6.190412,209821425,-939.949,-208.437,284.748,-6.619899300155453,-5.573064670813892,-6.119447900466582
6.200364,209831377,-938.485,-206.363,286.944,-5.155899300155511,-3.4990646708138797,-3.923447900466556
6.210255,209841268,-938.485,-206.363,286.944,-5.155899300155511,-3.4990646708138797,-3.923447900466556
6.217099,209848112,-933.544,-208.132,287.92,-0.21489930015547998,-5.268064670813885,-2.947447900466557
6.220148,209851161,-933.544,-208.132,287.92,-0.21489930015547998,-5.268064670813885,-2.947447900466557
6.230095,209861108,-933.544,-208.132,287.92,-0.21489930015547998,-5.268064670813885,-2.947447900466557
6.233983,209864996,-936.045,-209.535,285.663,-2.7158993001554563,-6.671064670813877,-5.204447900466562
6.240009,209871022,-936.045,-209.535,285.663,-2.7158993001554563,-6.671064670813877,-5.204447900466562
6.24996,209880973,-936.045,-209.535,285.663,-2.7158993001554563,-6.671064670813877,-5.204447900466562
6.250856,209881869,-937.387,-207.095,284.321,-4.057899300155441,-4.231064670813879,-6.546447900466546
6.259842,209890855,-937.387,-207.095,284.321,-4.057899300155441,-4.231064670813879,-6.546447900466546
6.267633,209898646,-933.971,-205.875,281.637,-0.6418993001555009,-3.01106467081388,-9.230447900466572
6.269747,209900760,-933.971,-205.875,281.637,-0.6418993001555009,-3.01106467081388,-9.230447900466572
6.279687,209910700,-933.971,-205.875,281.637,-0.6418993001555009,-3.01106467081388,-9.230447900466572
6.284388,209915401,-933.971,-205.875,281.637,-0.6418993001555009,-3.01106467081388,-9.230447900466572
6.284571,209915584,-934.093,-206.485,281.088,-0.7638993001554581,-3.621064670813894,-9.77944790046655
6.289513,209920526,-934.093,-206.485,281.088,-0.7638993001554581,-3.621064670813894,-9.77944790046655
6.299467,209930480,-934.093,-206.485,281.088,-0.7638993001554581,-3.621064670813894,-9.77944790046655
6.301309,209932322,-935.557,-210.389,281.332,-2.2278993001555136,-7.52506467081389,-9.535447900466579
6.309382,209940395,-935.557,-210.389,281.332,-2.2278993001555136,-7.52506467081389,-9.535447900466579
6.318124,209949137,-933.605,-209.535,281.82,-0.27589930015551545,-6.671064670813877,-9.04744790046658
6.319285,209950298,-933.605,-209.535,281.82,-0.27589930015551545,-6.671064670813877,-9.04744790046658
6.32923,209960243,-933.605,-209.535,281.82,-0.27589930015551545,-6.671064670813877,-9.04744790046658
6.334995,209966008,-932.019,-207.827,281.576,1.3101006998444973,-4.963064670813878,-9.291447900466551
6.339134,209970147,-932.019,-207.827,281.576,1.3101006998444973,-4.963064670813878,-9.291447900466551
6.349077,209980090,-932.019,-207.827,281.576,1.3101006998444973,-4.963064670813878,-9.291447900466551
6.351749,209982762,-931.836,-207.4,282.979,1.49310069984449,-4.536064670813886,-7.888447900466588
6.358993,209990006,-931.836,-207.4,282.979,1.49310069984449,-4.536064670813886,-7.888447900466588
6.368538,209999551,-934.093,-208.315,282.369,-0.7638993001554581,-5.451064670813878,-8.498447900466545
6.368889,209999902,-934.093,-208.315,282.369,-0.7638993001554581,-5.451064670813878,-8.498447900466545
6.378825,210009838,-934.093,-208.315,282.369,-0.7638993001554581,-5.451064670813878,-8.498447900466545
6.3854,210016413,-937.875,-207.888,281.515,-4.545899300155497,-5.024064670813885,-9.352447900466586
6.388731,210019744,-937.875,-207.888,281.515,-4.545899300155497,-5.024064670813885,-9.352447900466586
6.398537,210029550,-937.875,-207.888,281.515,-4.545899300155497,-5.024064670813885,-9.352447900466586
6.402293,210033306,-935.679,-207.644,282.064,-2.349899300155471,-4.780064670813886,-8.803447900466551
6.408462,210039475,-935.679,-207.644,282.064,-2.349899300155471,-4.780064670813886,-8.803447900466551
6.4184,210049413,-935.679,-207.644,282.064,-2.349899300155471,-4.780064670813886,-8.803447900466551
6.419027,210050040,-932.812,-208.864,282.125,0.5171006998444909,-6.0000646708138845,-8.742447900466573
6.428284,210059297,-932.812,-208.864,282.125,0.5171006998444909,-6.0000646708138845,-8.742447900466573
6.435938,210066951,-932.629,-210.328,284.748,0.7001006998444836,-7.464064670813883,-6.119447900466582
6.438188,210069201,-932.629,-210.328,284.748,0.7001006998444836,-7.464064670813883,-6.119447900466582
6.44813,210079143,-932.629,-210.328,284.748,0.7001006998444836,-7.464064670813883,-6.119447900466582
6.452698,210083711,-931.836,-209.108,284.077,1.49310069984449,-6.244064670813884,-6.7904479004665745
6.458058,210089071,-931.836,-209.108,284.077,1.49310069984449,-6.244064670813884,-6.7904479004665745
6.467998,210099011,-931.836,-209.108,284.077,1.49310069984449,-6.244064670813884,-6.7904479004665745
6.469569,210100582,-933.483,-205.204,281.82,-0.1538993001554445,-2.340064670813888,-9.04744790046658
6.477907,210108920,-933.483,-205.204,281.82,-0.1538993001554445,-2.340064670813888,-9.04744790046658
6.486377,210117390,-937.936,-208.071,285.48,-4.606899300155533,-5.207064670813878,-5.3874479004665545
6.487825,210118838,-937.936,-208.071,285.48,-4.606899300155533,-5.207064670813878,-5.3874479004665545
6.497647,210128660,-937.936,-208.071,285.48,-4.606899300155533,-5.207064670813878,-5.3874479004665545
6.503274,210134287,-941.108,-212.524,276.513,-7.7788993001554445,-9.660064670813881,-14.354447900466596
6.507563,210138576,-941.108,-212.524,276.513,-7.7788993001554445,-9.660064670813881,-14.354447900466596
6.51752,210148533,-941.108,-212.524,276.513,-7.7788993001554445,-9.660064670813881,-14.354447900466596
6.520035,210151048,-931.165,-201.361,289.445,2.164100699844539,1.5029353291861298,-1.4224479004665795
6.527411,210158424,-931.165,-201.361,289.445,2.164100699844539,1.5029353291861298,-1.4224479004665795
6.536832,210167845,-930.921,-200.08,279.38,2.4081006998444536,2.7839353291861073,-11.487447900466577
6.537345,210168358,-930.921,-200.08,279.38,2.4081006998444536,2.7839353291861073,-11.487447900466577
6.547295,210178308,-930.921,-200.08,279.38,2.4081006998444536,2.7839353291861073,-11.487447900466577
6.553752,210184765,-931.836,-201.239,295.179,1.49310069984449,1.6249353291861155,4.311552099533401
6.557212,210188225,-931.836,-201.239,295.179,1.49310069984449,1.6249353291861155,4.311552099533401
6.567024,210198037,-931.836,-201.239,295.179,1.49310069984449,1.6249353291861155,4.311552099533401
6.570509,210201522,-939.4,-209.84,292.495,-6.0708993001554745,-6.976064670813884,1.6275520995334318
6.576954,210207967,-939.4,-209.84,292.495,-6.0708993001554745,-6.976064670813884,1.6275520995334318
6.586901,210217914,-939.4,-209.84,292.495,-6.0708993001554745,-6.976064670813884,1.6275520995334318
6.587393,210218406,-932.08,-211.487,284.565,1.2491006998444618,-8.623064670813875,-6.302447900466575
6.5968,210227813,-932.08,-211.487,284.565,1.2491006998444618,-8.623064670813875,-6.302447900466575
6.604199,210235212,-930.799,-202.52,281.332,2.5301006998445246,0.3439353291861096,-9.535447900466579
6.606735,210237748,-930.799,-202.52,281.332,2.5301006998445246,0.3439353291861096,-9.535447900466579
6.61655,210247563,-930.799,-202.52,281.332,2.5301006998445246,0.3439353291861096,-9.535447900466579
6.620984,210251997,-932.385,-198.128,275.964,0.9441006998445118,4.735935329186134,-14.903447900466574
6.626466,210257479,-932.385,-198.128,275.964,0.9441006998445118,4.735935329186134,-14.903447900466574
6.636416,210267429,-932.385,-198.128,275.964,0.9441006998445118,4.735935329186134,-14.903447900466574
6.637879,210268892,-939.4,-203.984,279.868,-6.0708993001554745,-1.120064670813889,-10.999447900466578
6.64634,210277353,-939.4,-203.984,279.868,-6.0708993001554745,-1.120064670813889,-10.999447900466578
6.654668,210285681,-943.243,-211.731,287.493,-9.913899300155549,-8.867064670813875,-3.3744479004665777
6.656235,210287248,-943.243,-211.731,287.493,-9.913899300155549,-8.867064670813875,-3.3744479004665777
6.666177,210297190,-943.243,-211.731,287.493,-9.913899300155549,-8.867064670813875,-3.3744479004665777
6.671548,210302561,-937.204,-207.217,293.288,-3.874899300155448,-4.353064670813893,2.420552099533438
6.6761,210307113,-937.204,-207.217,293.288,-3.874899300155448,-4.353064670813893,2.420552099533438
6.686042,210317055,-937.204,-207.217,293.288,-3.874899300155448,-4.353064670813893,2.420552099533438
6.688308,210319321,-933.3,-208.62,290.421,0.029100699844548217,-5.756064670813885,-0.44644790046658045
6.695822,210326835,-933.3,-208.62,290.421,0.029100699844548217,-5.756064670813885,-0.44644790046658045
6.705094,210336107,-936.472,-206.485,284.748,-3.1428993001554772,-3.621064670813894,-6.119447900466582
6.705849,210336862,-936.472,-206.485,284.748,-3.1428993001554772,-3.621064670813894,-6.119447900466582
6.715649,210346662,-936.472,-206.485,284.748,-3.1428993001554772,-3.621064670813894,-6.119447900466582
6.721954,210352967,-936.411,-207.888,284.931,-3.081899300155442,-5.024064670813885,-5.9364479004665895
6.725562,210356575,-936.411,-207.888,284.931,-3.081899300155442,-5.024064670813885,-5.9364479004665895
6.735515,210366528,-936.411,-207.888,284.931,-3.081899300155442,-5.024064670813885,-5.9364479004665895
6.738848,210369861,-934.215,-207.4,284.26,-0.8858993001555291,-4.536064670813886,-6.607447900466582
6.745417,210376430,-934.215,-207.4,284.26,-0.8858993001555291,-4.536064670813886,-6.607447900466582
6.755365,210386378,-934.215,-207.4,284.26,-0.8858993001555291,-4.536064670813886,-6.607447900466582
6.755722,210386735,-927.2,-206.912,285.48,6.129100699844457,-4.048064670813886,-5.3874479004665545
6.765246,210396259,-927.2,-206.912,285.48,6.129100699844457,-4.048064670813886,-5.3874479004665545
6.772494,210403507,-924.577,-204.472,287.859,8.752100699844505,-1.6080646708138886,-3.0084479004665923
6.775148,210406161,-924.577,-204.472,287.859,8.752100699844505,-1.6080646708138886,-3.0084479004665923
6.785229,210416242,-924.577,-204.472,287.859,8.752100699844505,-1.6080646708138886,-3.0084479004665923
6.789253,210420266,-928.115,-207.461,288.591,5.214100699844494,-4.597064670813893,-2.2764479004665645
6.795147,210426160,-928.115,-207.461,288.591,5.214100699844494,-4.597064670813893,-2.2764479004665645
6.805094,210436107,-928.115,-207.461,288.591,5.214100699844494,-4.597064670813893,-2.2764479004665645
6.806126,210437139,-933.117,-208.803,286.761,0.21210069984454094,-5.9390646708138775,-4.106447900466549
6.814977,210445990,-933.117,-208.803,286.761,0.21210069984454094,-5.9390646708138775,-4.106447900466549
6.822902,210453915,-935.557,-206.912,292.312,-2.2278993001555136,-4.048064670813886,1.444552099533439
6.824881,210455894,-935.557,-206.912,292.312,-2.2278993001555136,-4.048064670813886,1.444552099533439
6.834825,210465838,-935.557,-206.912,292.312,-2.2278993001555136,-4.048064670813886,1.444552099533439
6.839793,210470806,-939.4,-203.496,289.872,-6.0708993001554745,-0.6320646708138895,-0.9954479004665586
6.844619,210475632,-939.4,-203.496,289.872,-6.0708993001554745,-0.6320646708138895,-0.9954479004665586
6.854569,210485582,-939.4,-203.496,289.872,-6.0708993001554745,-0.6320646708138895,-0.9954479004665586
6.856545,210487558,-941.108,-200.995,285.968,-7.7788993001554445,1.8689353291861153,-4.899447900466555
6.864473,210495486,-941.108,-200.995,285.968,-7.7788993001554445,1.8689353291861153,-4.899447900466555
6.873472,210504485,-938.607,-200.568,286.212,-5.277899300155468,2.2959353291861078,-4.655447900466584
6.874362,210505375,-938.607,-200.568,286.212,-5.277899300155468,2.2959353291861078,-4.655447900466584
6.884346,210515359,-938.607,-200.568,286.212,-5.277899300155468,2.2959353291861078,-4.655447900466584
6.890288,210521301,-935.069,-203.557,285.968,-1.7398993001554572,-0.6930646708138681,-4.899447900466555
6.894153,210525166,-935.069,-203.557,285.968,-1.7398993001554572,-0.6930646708138681,-4.899447900466555
6.904094,210535107,-935.069,-203.557,285.968,-1.7398993001554572,-0.6930646708138681,-4.899447900466555
6.907024,210538037,-935.069,-203.557,285.968,-1.7398993001554572,-0.6930646708138681,-4.899447900466555
6.90721,210538223,-929.64,-206.18,290.299,3.6891006998445164,-3.316064670813887,-0.5684479004665945
6.914022,210545035,-929.64,-206.18,290.299,3.6891006998445164,-3.316064670813887,-0.5684479004665945
6.923959,210554972,-933.361,-205.448,291.031,-0.031899300155487254,-2.5840646708138877,0.1635520995334332
6.933825,210564838,-933.361,-205.448,291.031,-0.031899300155487254,-2.5840646708138877,0.1635520995334332
6.940669,210571682,-933.361,-205.448,291.031,-0.031899300155487254,-2.5840646708138877,0.1635520995334332
6.940852,210571865,-937.936,-205.265,294.325,-4.606899300155533,-2.4010646708138665,3.457552099533416
6.943758,210574771,-937.936,-205.265,294.325,-4.606899300155533,-2.4010646708138665,3.457552099533416
6.953691,210584704,-937.936,-205.265,294.325,-4.606899300155533,-2.4010646708138665,3.457552099533416
6.957568,210588581,-935.984,-202.032,294.081,-2.6548993001555345,0.8319353291861091,3.2135520995334446
6.963606,210594619,-935.984,-202.032,294.081,-2.6548993001555345,0.8319353291861091,3.2135520995334446
6.97342,210604433,-935.984,-202.032,294.081,-2.6548993001555345,0.8319353291861091,3.2135520995334446
6.97445,210605463,-930.372,-203.984,291.824,2.9571006998445455,-1.120064670813889,0.9565520995334396
6.983322,210614335,-930.372,-203.984,291.824,2.9571006998445455,-1.120064670813889,0.9565520995334396
6.991241,210622254,-932.568,-205.631,291.092,0.7611006998445191,-2.7670646708138804,0.22455209953341182
6.993364,210624377,-932.568,-205.631,291.092,0.7611006998445191,-2.7670646708138804,0.22455209953341182
7.003192,210634205,-932.568,-205.631,291.092,0.7611006998445191,-2.7670646708138804,0.22455209953341182
7.008004,210639017,-935.679,-205.204,292.495,-2.349899300155471,-2.340064670813888,1.6275520995334318
7.013103,210644116,-935.679,-205.204,292.495,-2.349899300155471,-2.340064670813888,1.6275520995334318
7.023057,210654070,-935.679,-205.204,292.495,-2.349899300155471,-2.340064670813888,1.6275520995334318
7.0249,210655913,-938.424,-204.472,289.445,-5.094899300155475,-1.6080646708138886,-1.4224479004665795
7.032951,210663964,-938.424,-204.472,289.445,-5.094899300155475,-1.6080646708138886,-1.4224479004665795
7.041692,210672705,-941.413,-202.032,288.652,-8.083899300155508,0.8319353291861091,-2.215447900466586
7.042871,210673884,-941.413,-202.032,288.652,-8.083899300155508,0.8319353291861091,-2.215447900466586
7.05269,210683703,-941.413,-202.032,288.652,-8.083899300155508,0.8319353291861091,-2.215447900466586
7.058469,210689482,-941.413,-202.032,288.652,-8.083899300155508,0.8319353291861091,-2.215447900466586
7.058653,210689666,-935.923,-200.08,291.092,-2.593899300155499,2.7839353291861073,0.22455209953341182
7.062618,210693631,-935.923,-200.08,291.092,-2.593899300155499,2.7839353291861073,0.22455209953341182
7.072566,210703579,-935.923,-200.08,291.092,-2.593899300155499,2.7839353291861073,0.22455209953341182
7.075369,210706382,-928.664,-202.337,292.983,4.6651006998445155,0.5269353291861307,2.1155520995334314
7.082491,210713504,-928.664,-202.337,292.983,4.6651006998445155,0.5269353291861307,2.1155520995334314
7.092167,210723180,-925.797,-206.668,292.251,7.532100699844477,-3.8040646708138866,1.3835520995334036
7.092385,210723398,-925.797,-206.668,292.251,7.532100699844477,-3.8040646708138866,1.3835520995334036
7.10234,210733353,-925.797,-206.668,292.251,7.532100699844477,-3.8040646708138866,1.3835520995334036
7.109051,210740064,-928.115,-204.777,290.543,5.214100699844494,-1.913064670813867,-0.32444790046656635
