time_s,acc_x_centered_resampled,acc_y_centered_resampled,acc_z_centered_resampled,acc_x_filtered,acc_y_filtered,acc_z_filtered
0.0,-17.53889930015555,33.77193532918611,-41.49944790046658,-7.569124255921664,7.9070389316782235,-14.456214414518909
0.02,-21.332698440989112,33.823097990279805,-42.40893785750826,-7.901449909315953,7.699519025123498,-15.158952091152642
0.04,-22.918576473876083,37.84510851849017,-42.62828816963604,-8.22477861668941,7.481103112552024,-15.851712073230479
0.06,-25.651899300155492,38.83493532918612,-42.71944790046658,-8.537631177126277,7.251840401078468,-16.531669308466682
0.08,-24.79789930015545,32.06393532918611,-40.76744790046658,-8.83853515651827,7.011789865766972,-17.19598981144562
0.1,-20.771899300155496,31.02693532918613,-41.98744790046658,-9.126033066833536,6.761020972577772,-17.841844881430625
0.12,-10.889899300155548,31.33193532918611,-40.03544790046658,-9.398690651452435,6.499614561619745,-18.466425554935796
0.14,-11.194899300155498,35.235935329186134,-40.03544790046658,-9.655105228368626,6.227663886099293,-19.066957217856615
0.16,-22.845899300155452,30.59993532918611,-47.35544790046657,-9.893914044322749,5.945275801464885,-19.64071429670949
0.18,-24.431899300155465,27.97693532918612,-45.83044790046657,-10.113802591328652,5.6525720975316815,-20.185034942763018
0.2,-22.418899300155545,27.671935329186113,-44.183447900466575,-10.313512833100212,5.34969096450194,-20.697335617197673
0.22,-16.318899300155522,28.64793532918611,-42.963447900466576,-10.49185128505639,5.03678858188053,-21.17512548077059
0.24,-15.685614284214967,30.33625456404264,-47.94982515870248,-10.647696889892524,4.714040816803857,-21.616020488132442
0.26,-21.608685912983546,32.348159898218576,-52.12800870183324,-10.780008630786083,4.3816450150848345,-22.017757084505085
0.28,-22.906899300155487,27.48893532918612,-50.95444790046656,-10.887832824335415,4.039821864989597,-22.378205400530046
0.3,-20.527899300155468,20.83993532918612,-52.784447900466574,-10.970310034439274,3.688817311272053,-22.695381840296246
0.32,-20.95489930015549,15.166935329186117,-50.52744790046657,-11.026681547349297,3.3289044953556637,-22.9674609587933
0.34,-27.542899300155455,29.62393532918611,-48.33144790046657,-11.056295348249108,2.9603856956108245,-23.19278652854185
0.36,-27.471453840070208,29.13835153881441,-63.10969226365972,-11.058611541276,2.5835942379933385,-23.369881700250996
0.38,-31.629899300155444,29.13593532918611,-53.15044790046656,-11.033207157876866,2.1988963419473544,-23.497458168334948
0.4,-25.529899300155535,29.562935329186132,-66.32644790046658,-10.979780303207198,1.8066928615067255,-23.574424259149744
0.42,-18.941899300155455,30.660935329186117,-50.03944790046657,-10.898153597423827,1.4074208792170415,-23.599891868837183
0.44,-21.503899300155467,16.447935329186123,-51.564447900466575,-10.788276877671544,1.001555111354838,-23.573182189258834
0.46,-20.95489930015549,18.88793532918612,-53.39444790046656,-10.650229135634905,0.5896090857314347,-23.493830173845044
0.48,-11.133899300155463,33.832935329186114,-65.65544790046658,-10.484219672963313,0.17213605630293483,-23.361587708466317
0.5,-19.063899300155526,32.55193532918611,-52.96744790046657,-10.290588461972433,-0.250270379467195,-23.176425464563508
0.52,-26.566899300155455,21.815935329186118,-46.92844790046658,-10.069805702031543,-0.6769759935808928,-22.93853342346638
0.54,-24.126899300155515,27.671935329186113,-51.50344790046657,-9.822470563673079,-1.1073060015685003,-22.648320073314604
0.56,-20.527899300155468,19.86393532918612,-54.675447900466565,-9.54930911405394,-1.540545523347999,-22.306410292864516
0.58,-23.638899300155458,26.75693532918612,-53.699447900466566,-9.251171420647566,-1.9759404498775588,-21.91364194811037
0.6,-25.590899300155456,25.414935329186108,-51.25944790046657,-8.929027835594841,-2.412698728102302,-21.471061237650126
0.62,-24.126899300155515,21.26693532918611,-45.647447900466574,-8.583964470211901,-2.849992070978822,-20.97991683227275
0.64,-24.79789930015545,18.88793532918612,-43.26844790046658,-8.217177876914516,-3.286958093792162,-20.441652864146796
0.66,-22.418899300155545,22.791935329186117,-47.782447900466565,-7.8299689642259915,-3.722702872114156,-19.857900830500782
0.68,-21.961365297925077,24.27790076954297,-44.60922382019893,-7.423736179675578,-4.156303910923325,-19.23047048448126
0.7000000000000001,-17.477899300155514,22.547935329186117,-44.915447900466575,-6.99996800486185,-4.586813509007152,-18.561339791533793
0.72,-19.67389930015554,14.800935329186132,-41.49944790046658,-6.560234816035792,-5.013262497454851,-17.852644033886698
0.74,-13.709602452018013,15.55202186213741,-39.625611797314704,-6.106180171587807,-5.434664325269709,-17.10666414936912
0.76,-8.040278127348056,14.413124742782392,-43.29671619314949,-5.63951159432284,-5.850019459258989,-16.32581439397937
0.78,-12.768117727761428,14.971001853554657,-39.485493080117905,-5.161990920995412,-6.258320060610987,-15.512629419961701
0.8,-18.27089930015552,12.97093532918612,-36.37544790046658,-4.675424293867517,-6.658554897729536,-14.66975086252156
0.8200000000000001,-18.57589930015547,12.543935329186127,-33.203447900466585,-4.18165186909841,-7.049714453670249,-13.799913528951143
0.84,-19.55189930015547,11.384935329186106,-38.57144790046658,-3.6825373157591303,-7.430796186173771,-12.90593128388608
0.86,-12.35389930015549,18.88793532918612,-28.140447900466597,-3.1799571790988947,-7.8008098984013134,-11.99068272327764
0.88,-9.855771876332811,16.076515128887806,-38.544775835689265,-2.675790183428484,-8.158783178838041,-11.057096727178664
0.9,-17.965899300155456,14.068935329186132,-37.35144790046658,-2.171906552893171,-8.503766868920298,-10.108137977914351
0.92,-11.194899300155498,11.75093532918612,-33.935447900466556,-1.6701574308481013,-8.834840516036033,-9.146792526367271
0.9400000000000001,-8.022899300155473,10.103935329186129,-34.667447900466584,-1.1723644796079689,-9.15111776752399,-8.176053485812249
0.96,-5.754619354697139,13.719730483371151,-27.50253915282654,-0.680309742240734,-9.451751659007071,-7.198906930555346
0.98,-8.438769605765941,10.785981550867763,-27.820051823227722,-0.19572584704009488,-9.735939748881464,-6.218318075251685
1.0,-9.597437462797751,7.296563971983802,-25.230343265440247,0.27971336713073347,-10.002929050341393,-5.237217809106806
1.02,-2.8378993001555273,4.552935329186113,-27.103447900466563,0.7444017306235278,-10.252020712620954,-4.258489656159011
1.04,0.21210069984454094,6.1389353291861255,-28.140447900466597,1.196809059378059,-10.482574404110066,-3.2849572281826482
1.06,-4.850899300155447,6.748935329186111,-28.079447900466562,1.6354888455529646,-10.694012352170356,-2.319372230979747
1.08,-7.83989930015548,2.8428995191982995,-20.64082110387703,2.0590852672851203,-10.885822998265018,-1.3644030789437451
1.1,-3.8281078083582933,-0.19291587264527932,-17.51028441324793,2.466339470928745,-11.057564232171112,-0.4226241675062363
1.12,3.628100699844481,1.136935329186116,-17.5874479004666,2.8560950882232294,-11.208866175086536,0.5034941518390363
1.1400000000000001,-0.21489930015547998,5.040935329186112,-30.94644790046658,3.227302959612719,-11.339433488383191,1.4115948548808355
1.16,-3.3868993001555054,15.227935329186124,-22.711447900466567,3.579025043556231,-11.449047192752916,2.2994427543182026
1.18,-0.21489930015547998,10.530935329186121,-16.855447900466572,3.910437501091528,-11.537565990818052,3.164932210884105
1.2,-2.888865335243175,-3.075985793620908,-14.597352040817452,4.22083295532451,-11.604927093188639,4.006094027092545
1.22,-9.059899300155507,3.5769353291861137,-20.21044790046659,4.509621935920652,-11.651146552204391,4.821101508992007
1.24,-6.0708993001554745,10.103935329186129,-21.247447900466568,4.776333527967014,-11.67631911006821,5.6082756853760225
1.26,-2.2278993001555136,15.410935329186117,-20.515447900466597,5.020615252092349,-11.680617570885682,6.366089678843116
1.28,-3.6918993001554554,6.687935329186132,-15.69644790046658,5.242232208208841,-11.664291709891408,7.093172228160679
1.3,-11.51808911953151,0.968051804281912,-9.99506136516278,5.4410655190238595,-11.62766673621119,7.7883103652610775
1.32,-7.70077047594508,5.848431277590377,-9.912423260149115,5.617110112362092,-11.571141326505082,8.450451252883159
1.34,-3.8138993001555264,4.674935329186127,-11.304447900466585,5.770471883566309,-11.495185246743796,9.078703191769506
1.36,-3.6308993001555336,4.552935329186113,-15.879447900466573,5.901364280277936,-11.4003365802011,9.672335810791049
1.3800000000000001,-9.730899300155443,4.7969353291861125,-15.391447900466574,6.010104351639483,-11.287198582167019,10.230779459378427
1.4000000000000001,-3.1428993001554772,9.61593532918613,-10.206447900466571,6.097108303222097,-11.156436185068532,10.753623827812262
1.42,1.2491006998444618,9.37193532918613,-10.999447900466578,6.162886598432336,-11.008772180639642,11.240615825772082
1.44,-5.887899300155482,4.552935329186113,-11.487447900466577,6.208038646785783,-10.844983107920068,11.691656752731626
1.46,-1.190899300155479,3.454935329186128,-14.232447900466582,6.233247119329,-10.665894876843737,12.106798796106304
1.48,3.9331006998445446,4.003935329186106,-13.744447900466582,6.239271932063335,-10.472378157217634,12.48624089521242
1.5,0.2731006998444627,6.9929353291861105,-17.038447900466565,6.22694393962865,-10.265343562920997,12.830324010855952
1.52,-10.38621554034303,9.982980084003138,-12.666665149931326,6.197158383629716,-10.04573666200647,13.139525840934041
1.54,-8.083899300155508,5.711935329186133,-8.803447900466551,6.1508681426413405,-9.814532844855336,13.414455021318982
1.56,-3.32589930015547,3.7599353291861064,-4.411447900466555,6.089076833223253,-9.572732083649724,13.655844848824584
1.58,-4.118899300155476,4.186935329186127,-4.655447900466584,6.012831811703439,-9.321353616596634,13.864546560379742
1.6,-2.6548993001555345,8.63993532918613,-5.326447900466576,5.923217124515277,-9.061430590038682,14.041522201141245
1.62,-5.338899300155504,8.88393532918613,-7.034447900466546,5.821346451684434,-8.794004691644266,14.187837115070726
1.6400000000000001,-10.157899300155464,4.735935329186134,-7.339447900466553,5.708356085128889,-8.520120808358872,14.304652094177687
1.6600000000000001,-3.874899300155448,5.406935329186126,-7.278447900466574,5.585397981009602,-8.240821743017612,14.393215226009323
1.68,-3.8138993001555264,11.567935329186128,-5.143447900466583,5.453632922676714,-7.957143023033562,14.454853481891424
1.7,2.469100699844489,10.896935329186107,-3.496447900466592,5.314223827260503,-7.670107833664749,14.490964090421869
1.72,1.9811006998445464,8.21293532918611,-3.923447900466556,5.168329225228244,-7.380722107209642,14.503005742070574
1.74,-3.3868993001555054,8.39593532918613,-6.119447900466582,5.017096939619469,-7.089969797644661,14.492489672086688
1.76,-2.349899300155471,6.748935329186111,-9.230447900466572,4.861657991117144,-6.798808367371546,14.46097067066646
1.78,-4.545899300155497,6.260935329186111,-9.9624479004666,4.703120756245032,-6.50816450940764,14.41003807122666
1.8,-8.72767449212239,7.478369942298957,-9.834719016828073,4.5425654074205335,-6.218930125436584,14.341306768787
1.82,-3.8356162299322,10.33214019218733,-9.515568386766697,4.381038663996823,-5.931958578109696,14.25640832002569
1.84,-1.33477683494681,7.6101631621880745,-8.952079311997343,4.219548882228306,-5.648061234668787,14.156982174296678
1.86,-10.767899300155477,10.835935329186128,-6.119447900466582,4.059061509538612,-5.368004317785617,14.044667081257785
1.8800000000000001,-7.107899300155509,12.97093532918612,-4.106447900466549,3.9004949252816816,-5.092506077926872,13.921092716565747
1.9000000000000001,-5.033899300155554,9.37193532918613,-6.424447900466589,3.744716686853866,-4.822234299271469,13.787871563154509
1.92,-7.242150415171069,4.117286998330564,-16.13926057785548,3.5925401963407264,-4.557804148191363,13.64659108251128
1.94,-5.094899300155475,9.85993532918613,-7.400447900466588,3.444721798578037,-4.299776369814705,13.49880620804945
1.96,-1.92289930015545,9.920935329186108,3.9455520995334155,3.3019583169212483,-4.048655834934409,13.346032190269579
1.98,-9.425899300155493,2.7839353291861073,-4.716447900466562,3.1648850288232855,-3.8048904372433485,13.189737820184364
2.0,-5.643899300155454,9.12793532918613,-2.4594479004665573,3.0340740798614285,-3.5688703396279426,13.031339054276271
2.02,-3.5305698267012455,15.873753004519305,-13.841565444709548,2.9100333319834326,-3.3409275676122796,12.872193062767854
2.04,-3.605279107086896,13.998175715323326,-10.640552822131477,2.7932056390555746,-3.121335947621303,12.713592723484886
2.06,-10.635938180404331,5.05089644893725,-4.845562986003085,2.683968540121955,-2.910311386869026,12.556761584216964
2.08,-9.730899300155443,9.37193532918613,-4.899447900466555,2.5826343583322324,-2.708012489525779,12.402849315234475
2.1,-4.3628993001555045,14.251935329186125,-10.938447900466599,2.4894506911843193,-2.5145415004906644,12.252927670391848
2.12,0.8221006998445546,10.042935329186122,-11.18244790046657,2.4046012749612284,-2.329945564816875,12.107986971462388
2.14,-5.842115234630534,7.557287525760958,-11.151879769416665,2.328207202940388,-2.1542182883507097,11.968933126991974
2.16,-3.316958842140207,8.21959410781208,-9.123488358481826,2.2603284742037504,-1.987301583039188,11.836585193539053
2.18,-2.349899300155471,11.567935329186128,-5.8144479004665754,2.2009658488027113,-1.829087778299939,11.711673482792776
2.2,-6.375899300155538,5.894935329186126,-10.023447900466579,2.1500629855354574,-1.679421978249203,11.594838212816565
2.22,-5.826899300155446,7.907935329186131,-4.594447900466548,2.10750883974414,-1.5381046438031154,11.486628696516153
2.24,-5.582899300155532,9.37193532918613,-9.718447900466572,2.0731402996033474,-1.4048943785375423,11.387503056189576
2.2600000000000002,-7.07479000115696,9.33265621616754,-12.243577371138931,2.0467450400026843,-1.279510897517695,11.297828449766484
2.2800000000000002,-7.7788993001554445,10.347935329186129,-11.18244790046657,2.028064573142068,-1.1616381590099567,11.217881791594024
2.3000000000000003,-3.874899300155448,10.042935329186122,-5.8144479004665754,2.0167974743613484,-1.0509276397629699,11.147850947645065
2.32,-4.057899300155441,6.870935329186125,-3.923447900466556,2.012602760711177,-0.9470017349820594,11.08783638132449
2.34,-8.327899300155536,6.504935329186111,-0.44644790046658045,2.0151033986823816,-0.8494572641577061,11.037853222040805
2.36,-3.8280819396796835,14.024964263312443,-2.811265260942352,2.023889916757656,-0.7578690639331529,10.997833725724725
2.38,0.9179276894638124,18.627387232300315,-7.501213990431919,2.0385240982225294,-0.6717936495835279,10.96763009575301
2.4,-7.83989930015548,9.554935329186122,-9.291447900466551,2.0585427299037877,-0.5907729270766926,10.947017634336227
2.42,-14.671899300155474,5.2239353291861335,-6.363447900466554,2.083461383225856,-0.5143379370140551,10.935698197108039
2.44,-9.2428993001555,11.75093532918612,-8.132447900466559,2.1127782050592803,-0.4420126095079824,10.933303925751908
2.46,-4.545899300155497,13.519935329186126,-8.132447900466559,2.1459776962855823,-0.373317506317159,10.939401234121892
2.48,-1.9984883340980462,7.850216269133914,-5.417390459213324,2.182534454665461,-0.3077735248101767,10.95349502271618
2.5,3.20110069984446,9.85993532918613,-3.923447900466556,2.221916855902907,-0.24490553768229795,10.975033095311005
2.52,-1.3738993001554718,10.591935329186128,-6.607447900466582,2.2635906448518424,-0.18424594194276622,11.00341075068324
2.54,-8.205899300155465,6.504935329186111,-5.631447900466583,2.3070224094930913,-0.1253380901995782,11.037975522054456
2.56,-6.863899300155481,4.674935329186127,-6.607447900466582,2.3516829136880966,-0.06773957711283884,11.078032037334209
2.58,0.9181240726565107,6.799859236533348,-8.315447900466552,2.3970502691493603,-0.011025354499289097,11.122846974147162
2.6,0.3341006998444982,5.528935329186112,-7.583447900466581,2.4426129307013116,0.045209349753398076,11.171654084454824
2.62,-2.7158993001554563,6.687935329186132,-5.631447900466583,2.4878725013809517,0.1013463308877176,11.223659263914026
2.64,-1.6788993001555355,10.835935329186128,-3.6794479004665845,2.532346336463808,0.15774194260854113,11.278045640865537
2.66,-6.497899300155495,10.591935329186128,-3.4354479004665563,2.575569939140944,0.21472488235676712,11.333978659327688
2.68,-8.266899300155501,6.931935329186132,2.6645520995334095,2.6170991449161005,0.27259423663549676,11.390611130241286
2.7,-8.510899300155529,2.8449353291861144,-10.511447900466578,2.656512095549635,0.3316177938259557,11.447088226165867
2.72,3.5061006998445237,11.628935329186106,-11.243447900466549,2.6934110055193905,0.39203063010119976,11.502552396881622
2.74,-1.6178993001555,12.72693532918612,-0.6904479004665518,2.7274237244198627,0.45403397223660624,11.556148186200609
2.7600000000000002,-9.2428993001555,4.491935329186106,-1.056447900466594,2.75820509855218,0.5177943388448698,11.607026932380526
2.7800000000000002,-6.253899300155467,2.8449353291861144,-1.2394479004665868,2.78543813557437,0.5834429593303874,11.654351335266558
2.8000000000000003,-7.046899300155474,8.88393532918613,-7.827447900466552,2.8088349776399615,0.6510754681573228,11.6972998737377
2.82,-2.349899300155471,13.702935329186118,-9.291447900466551,2.828137689638372,0.7207518702941611,11.735071058597324
2.84,-8.266899300155501,10.042935329186122,-4.838447900466576,2.8431188689174145,0.792496771268258,11.766887508493365
2.86,-3.569899300155498,6.504935329186111,1.3835520995334036,2.8535820815963624,0.8662998627811582,11.791999838259187
2.88,-4.483124589227076,6.218865579092837,-1.0886429769303367,2.859362129205309,0.9421166535220764,11.809690349475481
2.9,-0.052352241331941274,6.857838270362586,-5.414103362651421,2.8603251483257552,1.0198694346862855,11.819276513050028
2.92,-5.399899300155539,6.1999353291861325,-9.352447900466586,2.8563685452223564,1.0994484695238569,11.820114234655145
2.94,-1.4958993001555427,9.61593532918613,-7.339447900466553,2.8474207673622405,1.1807133950606472,11.811600896027727
2.96,-0.21489930015547998,7.663935329186131,-4.838447900466576,2.833440914395564,1.2634948221043798,11.793178166968286
2.98,-2.9598993001554845,6.931935329186132,-5.631447900466583,2.8144181924747556,1.3475961175250584,11.764334583036577
3.0,-4.421562754744736,11.527920152120345,-4.091282398177989,2.790371217494934,1.4327953511556335,11.724607882539155
3.02,-5.826899300155446,6.443935329186132,-7.400447900466588,2.761347174799123,1.5188473886306344,11.673587094561643
3.04,-5.399899300155539,6.9929353291861105,-4.838447900466576,2.727420844734037,1.6054861109576155,11.61091436837772
3.06,-4.057899300155441,7.48093532918611,-6.912447900466589,2.6886935045287954,1.6924267414411642,11.536286533604509
3.08,-4.474330663993781,8.787733641047533,-4.051938127032516,2.64529171695101,1.7793682604959926,11.449456379591133
3.1,-4.353076238525247,8.870170915667224,-1.265036369651438,2.597366015350797,1.8659958886253873,11.350233641533272
3.12,-0.9508993001554193,8.067560329186138,2.4658020995335583,2.54508949363011,1.9519836174632395,11.238485679965596
3.14,-0.1538993001554445,7.175935329186132,3.3965520995334373,2.4886563088588742,2.036996768644972,11.114137840289649
3.16,-4.850899300155447,10.591935329186128,1.200552099533411,2.428280104029102,2.1206945605885945,10.977173480729157
3.18,-6.741899300155524,11.079935329186128,-2.4594479004665573,2.3641923590033813,2.2027326639189626,10.827633661111527
3.2,-5.870405803501852,5.646151770656028,-4.396049617855129,2.296640678851208,2.2827657271845756,10.665616490789052
3.22,-3.275317021674387,8.12504925323685,-4.124764356162745,2.2258870296441233,2.360449855837983,10.491276140533753
3.24,-1.6788993001555355,11.99493532918612,-6.363447900466554,2.152205931622693,2.4354450291590886,10.30482152884123
3.2600000000000002,1.0051006998445473,8.15193532918613,-3.923447900466556,2.0758826186196613,2.5074174415503374,10.106514696891063
3.2800000000000002,-2.4108993001555064,6.1389353291861255,-2.215447900466586,1.9972111717623795,2.576041756259283,9.896668888502315
3.3000000000000003,-3.6308993001555336,6.907275620598829,-1.0782520753141767,1.9164926357589955,2.64100326129816,9.675646352475525
3.3200000000000003,-4.631604936898824,8.252977381079944,-4.2587750701655445,1.834033127615715,2.7019999191120574,9.443855885613662
3.34,-7.290899300155502,6.687935329186132,-7.827447900466552,1.7501419496616166,2.7587443029414143,9.201750136168338
3.36,-6.375899300155538,6.626935329186125,-8.376447900466587,1.6651297202005624,2.810965413589404,8.94982268949732
3.38,-2.8378993001555273,5.406935329186126,-5.631447900466583,1.579306535273213,2.858410370693505,8.688604959554205
3.4,0.2731006998444627,6.687935329186132,-5.143447900466583,1.4929801739079984,2.900845972859759,8.418662910507152
3.42,-0.523314166589909,10.364081554505573,-4.978237795936933,1.4064543576001205,2.9380601211016897,8.140593632133468
3.44,-6.635957050376851,7.750297065235789,-5.607599007641043,1.3200270737157707,2.9698630999423035,7.855021791422782
3.46,-8.693899300155522,4.430935329186127,0.9565520995334396,1.2339889727773885,2.99608871064399,7.5625959819649715
3.48,-12.109899300155462,2.356935329186115,-11.426447900466599,1.1486218505984327,3.016595251675333,7.263984992636027
3.5,-8.022899300155473,7.663935329186131,-6.607447900466582,1.064197226417003,3.031266342420623,6.959874017794442
3.52,4.909100699844544,10.835935329186128,-12.402447900466598,0.9809750262103281,3.0400115865033372,6.650960832222459
3.54,-5.857825221155618,6.780396693729278,1.684455145151242,0.8992023765044799,3.0427670706740795,6.337951954533412
3.56,-0.27589930015551545,1.3199353291861087,-6.851447900466553,0.8191125100831675,3.0394956947874534,6.021558822114781
3.58,-3.6308993001555336,12.299935329186127,-9.291447900466551,0.7409237830008717,3.03018732880144,5.702493999411191
3.6,-6.253899300155467,12.299935329186127,-9.535447900466579,0.6648388025940601,3.014858793832748,5.381467440624286
3.62,-9.54789930015545,8.21293532918611,-9.596447900466558,0.591043667565788,2.9935536656015134,5.059182827956922
3.64,-6.526897987532423,4.639931391316867,-6.1532908232405354,0.5197073222212745,2.9663419004184832,4.73633400637239
3.66,-6.802899300155445,0.09993532918610981,-5.143447900466583,0.45098102661622264,2.933319286749705,4.413601534668678
3.68,-3.6918993001554554,3.271935329186107,-9.352447900466586,0.38499794251434194,2.8946067286599386,4.0916493708771275
3.7,-1.6788993001555355,8.88393532918613,-12.951447900466576,0.32187283221301843,2.850349369456815,3.7711217085496003
3.72,0.09010069984447,7.907935329186131,-12.890447900466597,0.2617018646159799,2.8007155638243435,3.4526399796924707
3.74,1.18810069984454,6.1999353291861325,-8.742447900466573,0.20456252148109444,2.7458957055654722,3.136800039176258
3.7600000000000002,-4.899525230676774,3.7258404160347762,-11.369118496000192,0.15051359714644086,2.686100917434405,2.8241695434279173
3.7800000000000002,-6.802899300155445,6.931935329186132,-7.888447900466588,0.09959528716687038,2.6215616102052683,2.5152855330365673
3.8000000000000003,-5.094899300155475,4.491935329186106,-10.938447900466599,0.05182936431100926,2.5525259195297902,2.210652225452783
3.8200000000000003,-8.754899300155444,5.284935329186112,-14.720447900466581,0.0072194428947813805,2.4792580303899956,1.9107390210891833
3.84,-7.595899300155452,4.979935329186134,-11.731447900466549,-0.034248666611648604,2.402036399774205,1.6159787239220247
3.86,-6.375899300155538,7.96893532918611,-13.378447900466597,-0.07260651155171605,2.3211518888117695,1.3267659755696357
3.88,-5.7658993001555245,2.7229353291861287,-5.44844790046659,-0.10790246053367869,2.2369058162301156,1.0434558991898992
3.9,-3.6918993001554554,1.7469353291861296,-4.167447900466584,-0.14020107996728925,2.1496079457759807,0.7663629465042359
3.92,-2.166899300155478,2.9669353291861285,-5.570447900466547,-0.169582429934106,2.0595744210918094,0.49575993883966785
3.94,-3.9358993001554836,6.931935329186132,-5.8144479004665754,-0.1961412875809767,1.967125662041143,0.23187729259622625
3.96,-5.094899300155475,8.334935329186123,-8.55944790046658,-0.2199863070525998,1.8725842362951437,-0.025097578408059817
3.98,-10.889899300155548,-0.14406467081388996,-13.012447900466555,-0.24123912476761333,1.7762727195156256,-0.2750206873107306
4.0,-2.2278993001555136,4.247935329186106,-3.6794479004665845,-0.2600334182476889,1.6785115575377327,-0.5177917244202099
4.0200000000000005,3.417058103902946,6.408833058742059,-10.86953027940979,-0.276513926592151,1.5796169447848243,-0.7533541285880654
4.04,-4.21591800813574,5.208761111121113,-13.818321913912882,-0.2908354412131493,1.4798987341090868,-0.9816949722265882
4.0600000000000005,-8.449899300155494,1.9909353291861294,-12.463447900466576,-0.3031617756372975,1.3796583938974107,-1.2028446502720351
4.08,-2.852477493986057,5.161121452534494,-12.038261777118215,-0.3136647220619795,1.2791870288989842,-1.4168763617400515
4.1,-0.6418993001555009,2.2959353291861078,-12.219447900466548,-0.3225230003621973,1.1787634821014368,-1.62390537184113
4.12,-2.4108993001555064,0.038935329186131185,-12.463447900466576,-0.32992120360701804,1.0786525358380081,-1.8240880431367286
4.14,-6.047714127702158,0.6535765575577983,-13.720193288343241,-0.33604874311333943,0.9791032307200114,-2.017620625461051
4.16,-7.049275100744048,1.9821501465653681,-15.331165920200057,-0.34109879489729367,0.8803473206953953,-2.2047377957698657
4.18,-6.783607337538751,0.5291016843263359,-16.018322666821756,-0.3452672479008887,0.7825978813992012,-2.3857109406669075
4.2,-1.6788993001555355,-0.2050646708138686,-15.635447900466545,-0.34875165338581327,0.686048087085537,-2.560846176442765
4.22,-3.3868993001555054,0.8319353291861091,-15.452447900466552,-0.3517501750275285,0.5908701691717675,-2.730482104363551
4.24,-4.545899300155497,-0.08306467081388291,-15.940447900466552,-0.3544605400858287,0.49721456705371403,-2.8949873026940516
4.26,-8.62056951292146,0.36810820152655066,-12.78110215578568,-0.35707899262238385,0.4052092793804867,-3.054757561233979
4.28,-10.95089930015547,-3.377064670813894,-20.27144790046657,-0.35979924976201483,0.31495942138024646,-3.210212868563547
4.3,-2.593899300155499,4.918935329186127,-15.635447900466545,-0.36281146217947924,0.22654699112870613,-3.361794166465891
4.32,-1.2518993001555145,4.247935329186106,-5.3874479004665545,-0.3663011812810435,0.14003084489718054,-3.509959890143971
4.34,-3.2038993001555127,-0.3270646708138827,-10.572447900466557,-0.37044833787387776,0.055446879190566234,-3.6551823168766573
4.36,-3.0311952691143875,0.49755960165864666,-20.846273293870368,-0.37542623921721496,-0.027191584623202925,-3.797943749034734
4.38,-8.497257309486681,3.8770970710210526,-20.961895800933508,-0.3814005920285847,-0.10789321780235461,-3.9387325590612576
4.4,-7.229899300155466,-3.377064670813894,-15.940447900466552,-0.38852855839161493,-0.18668790855610684,-4.078039124589089
4.42,-2.898899300155449,-4.841064670813893,-15.208447900466581,-0.3969578507917093,-0.2636257980523147,-4.216351683255232
4.44,-2.593899300155499,-4.536064670813886,-14.171447900466546,-0.40682587272776904,-0.3387761336503736,-4.354152140192218
4.46,-4.301899300155469,-0.6930646708138681,-10.694447900466571,-0.41825891244571134,-0.41222594658748735,-4.491911865689922
4.48,-0.23059224621340024,0.33849342047268527,-12.048217610009981,-0.4313713983580285,-0.4840785643881027,-4.630087524242604
4.5,1.1257580398929645,-1.475266498831095,-13.694189180078606,-0.44626522478525743,-0.5544519722618799,-4.769116978020454
4.5200000000000005,-8.754899300155444,-4.841064670813893,-17.64844790046658,-0.46302915556568913,-0.6234770415659332,-4.909415307725084
4.54,-7.290899300155502,1.5029353291861298,-12.15844790046657,-0.48173831109429677,-0.6912956462412623,-5.051370992493609
4.5600000000000005,-0.5198993001555436,-0.6320646708138895,-12.463447900466576,-0.5024537421408699,-0.758058690165071,-5.1953422889705
4.58,-1.190899300155479,-2.1570646708138668,-8.55944790046658,-0.5252220923121328,-0.8239240700682449,-5.341653848416751
4.6000000000000005,-7.548824794753253,1.9884617779027254,-12.713071164111696,-0.5500753505926248,-0.8890546000390556,-5.490593609371968
4.62,-1.9838993001554854,6.626935329186125,-16.367447900466573,-0.577030695252651,-0.9536159243247937,-5.642410001042378
4.64,-5.399899300155539,0.5879353291861094,-14.903447900466574,-0.606090429781221,-1.0177744448732515,-5.797309488978405
4.66,-2.4108993001555064,-2.096064670813888,-10.938447900466599,-0.6372420105883868,-1.0816952885277697,-5.955454490479273
4.68,-0.1538993001554445,-1.3640646708138888,-6.424447900466589,-0.6704581655197945,-1.1455403358998886,-6.116961683466949
4.7,-5.34438313169239,-1.5527179656243433,-7.2829895162017015,-0.7056971016371621,-1.2094663304002053,-6.281900729243877
4.72,-5.277899300155468,1.3809353291861157,-8.498447900466545,-0.7429027997944199,-1.2736230829101027,-6.450293425372563
4.74,-9.181899300155465,-4.780064670813886,-18.31944790046657,-0.7820053922231013,-1.3381517856488456,-6.622113298748013
4.76,-7.53489930015553,0.7709353291861305,-12.036447900466555,-0.8229216182555201,-1.4031834474866454,-6.797285641003188
4.78,1.2491006998444618,-0.44906467081386836,-13.744447900466582,-0.8655553533180572,-1.4688374616979771,-6.975687980278868
4.8,1.9811006998445464,1.075935329186109,-10.328447900466585,-0.9097982076005203,-1.5352203157603719,-7.157150976694738
4.82,-7.045167438956755,-3.7295946392681687,-14.415447900466575,-0.9555301923325825,-1.6024244511883527,-7.341459723844362
4.84,-6.802899300155445,-2.8280646708138875,-15.635447900466545,-1.0026204518893171,-1.670527279369102,-7.528355434382799
4.86,-2.1058993001554427,0.16093532918611686,-15.330447900466595,-1.0509280586369667,-1.739590357049898,-7.717537483508308
4.88,-0.7028993001555364,-1.3030646708138818,-14.415447900466575,-1.100302865711721,-1.8096587229888141,-7.908665780022686
4.9,-4.3628993001555045,-4.048064670813886,-16.42844790046655,-1.1505864119627738,-1.8807603955521377,-8.101363431271633
4.92,-1.775314186085062,-2.882163050085084,-21.163860205617787,-1.2016128728358018,-1.952906029467842,-8.29521966582981
4.94,-6.0708993001554745,-3.8650646708138936,-20.576447900466576,-1.2532100501360839,-2.02608872833877,-8.489792976210257
4.96,-6.802899300155445,-4.536064670813886,-17.5874479004666,-1.3052003922649087,-2.100284008145545,-8.684614443320532
4.98,-9.730899300155443,-4.597064670813893,-15.391447900466574,-1.3574020353597716,-2.175449906160134,-8.87919120525612
5.0,-4.606899300155533,-1.120064670813889,-13.378447900466597,-1.409629855569629,-2.2515272294633313,-9.073010035152532
5.0200000000000005,-4.6678993001554545,-5.451064670813878,-18.86844790046655,-1.4616965238644672,-2.3284399373889593,-9.26554099517294
5.04,-1.92289930015545,0.09993532918610981,-19.78344790046657,-1.5134135570612244,-2.4060956523841224,-9.456241135190988
5.0600000000000005,2.9571006998445455,-0.3270646708138827,-14.171447900466546,-1.5645923611900934,-2.484386293635005,-9.644558205216835
5.08,0.7001006998444836,-6.183064670813877,-12.463447900466576,-1.6150452647180977,-2.5631888270992547,-9.829934350898553
5.1000000000000005,-5.83274238971008,-3.3720563083384945,-17.43449807531895,-1.6645865386446244,-2.6423661242291585,-10.011809762050293
5.12,-7.0435181973408545,-2.2729331372124846,-24.24997231172518,-1.7130333980570878,-2.721767919920924,-10.189626244733887
5.14,-6.918964690904885,-4.559608530462503,-26.058664806368323,-1.760206976437812,-2.8012318586428333,-10.362830687601425
5.16,-6.497899300155495,-9.111064670813874,-16.367447900466573,-1.8059332615726988,-2.880584616654914,-10.530878393872827
5.18,-6.985899300155552,-7.76906467081389,-15.391447900466574,-1.8500439815188425,-2.9596430877275046,-10.69323625292597
5.2,-6.834900500635472,-2.3782317776565467,-15.276946579938588,-1.89237743062627,-3.0382156199064356,-10.84938573010023
5.22,-2.4429489930644093,-1.3968636657887583,-18.748559569924954,-1.9327792281773577,-3.116103291957187,-10.99882565818577
5.24,2.164100699844539,-2.279064670813881,-18.258447900466592,-1.9711030049497196,-3.1931012198360205,-11.141074817357854
5.26,-3.6918993001554554,-5.512064670813885,-21.064447900466575,-2.0072110151891764,-3.268999884754275,-11.275674291867816
5.28,-8.57189930015545,-8.196064670813882,-20.94244790046656,-2.040974672350541,-3.3435864742777395,-11.402189592853071
5.3,-9.669899300155521,-7.76906467081389,-22.711447900466567,-2.0722750063512883,-3.4166462268524516,-11.520212538390746
5.32,-5.98614954116925,-5.208148405836775,-17.677666740846725,-2.1010030390615038,-3.487963769445242,-11.629362884869364
5.34,-6.287417344393077,-7.1887196184273545,-19.138722638533967,-2.1270600749848927,-3.557324438556163,-11.729289707739563
5.36,-5.399899300155539,-3.4990646708138797,-20.576447900466576,-2.150357906236175,-3.624515576588812,-11.819672534157453
5.38,-5.826899300155446,-0.9370646708138679,-20.515447900466597,-2.170818934169645,-3.689327797622267,-11.900222234240001
5.4,-2.7158993001554563,-4.475064670813879,-18.624447900466578,-2.188376213136162,-3.7515562181497275,-11.970681681259178
5.42,-0.3532055699880565,-6.733473030590667,-14.407538391767597,-2.2029734242067924,-3.8110016487952594,-12.030826194283671
5.44,-1.3075743729007077,-4.964839646565488,-13.622802895616887,-2.2145647881154074,-3.8674717423580622,-12.08046377965849
5.46,-7.290899300155502,-4.475064670813879,-14.903447900466574,-2.2231149269245067,-3.9207820923601373,-12.119435189812801
5.48,-8.449899300155494,-7.52506467081389,-16.18444790046658,-2.228598682969374,-3.9707572754013527,-12.147613818443327
5.5,-5.826899300155446,-7.037064670813891,-17.0994479004666,-2.23100090219294,-4.017231830387152,-12.164905449934304
5.5200000000000005,0.3341006998444982,-4.292064670813886,-16.91644790046655,-2.230316188280886,-4.060051167935224,-12.171247878619164
5.54,-3.858262936519129,-3.961185882935094,-16.596660021678712,-2.226548634617431,-4.099072403834658,-12.166610411165388
5.5600000000000005,-3.782728274833824,-7.710824737232022,-16.062447900466566,-2.219711542214513,-4.134165111180308,-12.150993263575206
5.58,-4.850899300155447,-11.063064670813873,-14.171447900466546,-2.2098271321523324,-4.165211986434217,-12.124426863024786
5.6000000000000005,-0.6418993001555009,-3.0720646708138872,-13.927447900466575,-2.1969262603515274,-4.192109425111024,-12.086971063626933
5.62,0.2731006998444627,-2.8280646708138875,-19.539447900466598,-2.181048141264226,-4.214768003488407,-12.03871428376846
5.64,-4.274670533881425,-10.08454979170671,-18.41472967356022,-2.1622400857252257,-4.2331128639636075,-11.979772570779684
5.66,-1.0893326185877052,-3.062138877340163,-19.324979862916358,-2.14055725647946,-4.247084002893802,-11.910288596714548
5.68,-0.031899300155487254,-5.207064670813878,-17.5874479004666,-2.116062442537058,-4.256636460369524,-11.830430587738864
5.7,-7.290899300155502,-11.856064670813879,-16.91644790046655,-2.0888258507631408,-4.261740411497621,-11.740391189563624
5.72,-6.558899300155531,-8.684064670813882,-16.062447900466566,-2.0589249104587486,-4.262381158933597,-11.640386272285076
5.74,-4.3628993001555045,-5.512064670813885,-13.683447900466547,-2.026444084576606,-4.258559027047823,-11.530653679167774
5.76,-1.2941714785113807,-3.7176786977531133,-19.191835731400253,-1.9914746801500987,-4.250289159571249,-11.411451924671795
5.78,-2.349899300155471,-4.536064670813886,-19.78344790046657,-1.9541146506729794,-4.237601224675995,-11.283058847141373
5.8,-4.118899300155476,-4.536064670813886,-6.851447900466553,-1.914468383883578,-4.220539033265337,-11.145770221315237
5.82,-5.338899300155504,-9.111064670813874,-12.219447900466548,-1.872646468709978,-4.199160076881251,-10.999898335642943
5.84,-0.7028993001555364,-1.913064670813867,-16.6114479004666,-1.82876543478634,-4.1735349911483315,-10.84577053913991
5.86,1.3101006998444973,-3.4990646708138797,-20.27144790046657,-1.7829474574671715,-4.143746949820997,-10.683727761383388
5.88,-9.405703633263041,-8.418919105478665,-16.88985074406858,-1.7353200209632413,-4.109890993783864,-10.51412300714272
5.9,-10.279899300155535,-9.965064670813888,-12.280447900466584,-1.686015531884741,-4.072073298657327,-10.337319825367324
5.92,-10.462899300155527,-9.599064670813874,-11.975447900466577,-1.6351708752548566,-4.0304103839445,-10.153690752088334
5.94,-5.7658993001555245,-5.268064670813885,-12.463447900466576,-1.5829269060897102,-3.9850282665599064,-9.963615727825164
5.96,2.225100699844461,-1.120064670813889,-15.879447900466573,-1.5294278729772306,-3.936061562756384,-9.767480490820482
5.98,-2.8122202784988053,-4.2172228434248815,-17.96287953498879,-1.4748207751338736,-3.8836525444903467,-9.565674947018636
6.0,-1.7398993001554572,-6.732064670813884,-15.879447900466573,-1.4192546591043311,-3.8279501577714417,-9.35859151673787
6.0200000000000005,-0.7028993001555364,-9.660064670813881,-16.062447900466566,-1.3628798638376503,-3.7691090105613956,-9.146623457713156
6.04,-5.826899300155446,-6.488064670813884,-17.770447900466593,-1.305847223204486,-3.707288336733951,-8.930163165355797
6.0600000000000005,-6.375899300155538,-6.244064670813884,-17.0994479004666,-1.2483072342571953,-3.6426509418111905,-8.709600453545539
6.08,-5.399899300155539,-5.573064670813892,-12.890447900466597,-1.1904091989405248,-3.575362136530196,-8.485320822506033
6.1000000000000005,-4.545899300155497,-5.512064670813885,-13.866447900466596,-1.132300347356793,-3.5055886654999,-8.257703723915236
6.12,-3.6308993001555336,-4.353064670813893,-14.476447900466553,-1.074124952340349,-3.433497639429767,-8.02712083700635
6.140000000000001,1.2491006998444618,-3.8040646708138866,-15.574447900466566,-1.0160234475928727,-3.359255480079323,-7.793934372553769
6.16,4.6651006998445155,-4.109064670813893,-13.683447900466547,-0.9581315640456082,-3.283026887085996,-7.558495424111141
6.18,-0.21489930015547998,-5.512064670813885,-9.718447900466572,-0.9005795004015603,-3.2049738352460664,-7.321142387983206
6.2,-5.209445923949757,-3.5749223878557324,-4.003767836157929,-0.8434911431999231,-3.1252546097644496,-7.082199475453493
6.22,-0.21489930015547998,-5.268064670813885,-2.947447900466557,-0.7869833492854267,-3.0440228856830283,-6.841975342302443
6.24,-2.7158993001554563,-6.671064670813877,-5.204447900466562,-0.7311653003971895,-2.9614268564209922,-6.6007618604798415
6.26,-3.9886234690683438,-4.206323302568487,-6.60087891060641,-0.6761379371200605,-2.877608415298672,-6.358833053964786
6.28,-0.6418993001555009,-3.01106467081388,-9.230447900466572,-0.6219934781681622,-2.7927023931644213,-6.116444215498179
6.3,-1.187521449992547,-4.750723737046087,-9.708844208827047,-0.5688150304921109,-2.7068358547842126,-5.87383121434383
6.32,-0.27589930015551545,-6.671064670813877,-9.04744790046658,-0.5166762954781365,-2.6201274562515318,-5.6312099991846445
6.34,1.3101006998444973,-4.963064670813878,-9.291447900466551,-0.465641376133054,-2.5326868650895444,-5.388776295722695
6.36,1.254986608697201,-4.632597410468193,-7.952803060236122,-0.4157646892602349,-2.444614244083044,-5.146705495641825
6.38,-1.4397700225889059,-5.374756686023007,-8.651063870048297,-0.36709098500545456,-2.355999799569203,-4.905152731823244
6.4,-3.690535082902987,-4.929024202230274,-9.138606846153447,-0.3196554738518097,-2.2669233950348433,-4.664253133487023
6.42,0.5171006998444909,-6.0000646708138845,-8.742447900466573,-0.27348405858619984,-2.177454231182253,-4.424122253919375
6.44,0.7001006998444836,-7.464064670813883,-6.119447900466582,-0.22859366658104263,-2.0876505939781986,-4.18485666260306
6.46,1.49310069984449,-6.244064670813884,-6.7904479004665745,-0.18499267625968308,-1.997559672716796,-3.9465346929677736
6.48,-1.2542687216432535,-3.0485216956073926,-8.143034677325927,-0.14268143046416693,-1.9072174510431925,-3.709217336522073
6.5,-5.933310531717644,-7.069141976660742,-9.137110420459567,-0.10165282800306885,-1.8166486752555706,-3.4729492735882594
6.5200000000000005,2.0257289304625594,1.3475854285916373,-1.602416091319217,-0.06189298292616785,-1.72586690572317,-3.2377600302189222
6.54,2.4081006998444536,2.7839353291861073,-11.487447900466577,-0.02338193971780178,-1.634874658368869,-3.003665250369713
6.5600000000000005,1.49310069984449,1.6249353291861155,4.311552099533401,0.013905567999236368,-1.543663643231222,-2.7706680721085286
6.58,-6.0708993001554745,-6.976064670813884,1.6275520995334318,0.049999328058735415,-1.452215105530988,-2.5387605961849546
6.6000000000000005,1.803121513468016,-4.744918975449192,-7.700690906278336,0.08493284339292106,-1.360500271307782,-2.3079254339980997
6.62,1.2960682235251328,3.7612560328398015,-13.712173204932176,0.11874252374121663,-1.2684808955596354,-2.0781373193587864
6.640000000000001,-6.0708993001554745,-1.120064670813889,-10.999447900466578,0.15146689124714935,-1.1761099074071844,-1.8493647649650358
6.66,-9.913899300155549,-8.867064670813875,-3.3744479004665777,0.183145815791811,-1.0833321445406796,-1.621571742187756
6.68,-3.874899300155448,-4.353064670813893,2.420552099533438,0.21381979516877225,-0.990085167326515,-1.3947193634344393
6.7,-1.4002150896292787,-4.79402519712959,-3.002724216256289,0.24352929313993765,-0.8963001411667938,-1.16876754947861
6.72,-3.100803978981785,-4.589257057808251,-5.993161936945583,0.2723141445084294,-0.8019027748569455,-0.9436766671243211
6.74,-0.8858993001555291,-4.536064670813886,-6.607447900466582,0.300213031328454,-0.7068143033626204,-0.7194091235117686
6.76,6.129100699844457,-4.048064670813886,-5.3874479004665545,0.32726302978142846,-0.6109525051244238,-0.49593090277802787
6.78,8.752100699844505,-1.6080646708138886,-3.0084479004665923,0.35349922414218393,-0.5142327458794865,-0.2732130305491385
6.8,5.214100699844494,-4.597064670813893,-2.2764479004665645,0.3789543831506252,-0.41656904268307904,-0.051232952960983624
6.82,-1.3344128648243643,-4.740516658195508,-0.5881295408448755,0.4036586954789717,-0.31787514322314636,0.170024180839774
6.84,-6.0708993001554745,-0.6320646708138895,-0.9954479004665586,0.4276395647436951,-0.21806561664640367,0.39056434157001885
6.86,-7.7788993001554445,1.8689353291861153,-4.899447900466555,0.45092146907334457,-0.11705695309060826,0.61038355550789
6.88,-5.277899300155468,2.2959353291861078,-4.655447900466584,0.4735258930894448,-0.014768669918348243,0.8294669598248499
6.9,-1.7398993001554572,-0.6930646708138681,-4.899447900466555,0.495471339560007,0.0888755772498595,1.047787983851184
6.92,1.450584246186506,-2.8757007782910007,-0.12808400794369101,0.5167734241559603,0.19394688180050335,1.2653076613427432
6.94,-0.031899300155487254,-2.5840646708138877,0.1635520995334332,0.5374450514847562,0.30050997710822225,1.4819740764937048
6.96,-2.6548993001555345,0.8319353291861091,3.2135520995334446,0.5574966659625695,0.4086221390742486,1.697721943542371
6.98,2.9571006998445455,-1.120064670813889,0.9565520995334396,0.5769365681937884,0.5183321096259049,1.9124723174185463
7.0,0.7611006998445191,-2.7670646708138804,0.22455209953341182,0.5957712861407892,0.6296790511935347,2.1261324318003982
7.0200000000000005,-2.349899300155471,-2.340064670813888,1.6275520995334318,0.6140059897724616,0.7426915423837164,2.338595661207538
7.04,-7.505316986918982,0.359623236748134,-2.0619464704242425,0.6316449376485729,0.8573866251720326,2.5497416046972874
7.0600000000000005,-2.593899300155499,2.7839353291861073,0.22455209953341182,0.6486919436652486,0.9737689137962828,2.7594362895547024
7.08,4.6651006998445155,0.5269353291861307,2.1155520995334314,0.6651508512165422,1.0918297751470327,2.9675324935749487
7.1000000000000005,7.532100699844477,-3.8040646708138866,1.3835520995334036,0.6810259999063237,1.2115465903160443,3.1738701840446035
7.12,5.214100699844494,-1.913064670813867,-0.32444790046656635,0.6963226676795028,1.3328821074286035,3.378277070616726
7.140000000000001,7.837100699844541,2.051935329186108,-2.947447900466557,0.7110474708282326,1.4557838965139662,3.580569268341241
7.16,-7.4738993001554945,0.3439353291861096,2.9085520995334377,0.7252087069443872,1.5801839171565175,3.7805520662050753
7.18,-5.826899300155446,-3.25506467081388,0.2855520995334473,0.7388166307356278,1.7059982088686747,3.978020795262079
7.2,5.214100699844494,1.3199353291861087,5.165552099533443,0.7518836574261758,1.8331267131055657,4.172761788565274
7.22,7.105100699844456,-1.1810646708138677,4.860552099533436,0.7644244911292257,1.96145323495517,4.364553423091592
7.24,1.49310069984449,-3.8040646708138866,2.3595520995334027,0.7764561759841591,2.0908455515355056,4.553167232448516
7.26,-1.5252622316478301,1.8796127588196754,-0.7968269764092165,0.7879980679951766,2.221155672699301,4.738369078803994
7.28,0.5171006998444909,-2.340064670813888,4.433552099533415,0.7990717272037358,2.3522202577408575,4.91992037290679
7.3,2.2861006998444964,-1.3640646708138888,7.6055520995334405,0.8097007327135215,2.483861189503901,5.097579331485902
7.32,4.238100699844495,-0.38806467081388973,10.472552099533402,0.8199104256181733,2.6158863047520184,5.271102261274985
7.34,-1.92289930015545,1.6249353291861155,-1.4224479004665795,0.8297275864922339,2.748090277032313,5.440244858946305
7.36,0.3529614240789717,4.891578783224551,3.304627308446062,0.8391800554344901,2.880255645640643,5.604763517302293
7.38,1.4321006998444545,3.5769353291861137,4.555552099533429,0.848296304170563,3.012153981980283,5.764416630088591
7.4,1.49310069984449,-4.292064670813886,10.960552099533402,0.8571049711050699,3.1435471831432125,5.918965889547015
7.42,0.8048439889865877,-6.669861646819413,10.356005808309753,0.8656343710753386,3.2741888821156793,6.06817757159739
7.44,1.9192504567328479,1.2135857343734924,5.2947791659829235,0.8739119920750017,3.403825963763896,6.211823804179999
7.46,1.6628365253895343,12.037768350993144,-5.648208648130169,0.8819639917840763,3.5322001742796996,6.3496838161179925
7.48,-8.57189930015545,8.15193532918613,0.1635520995334332,0.8898147074434034,3.6590498087903875,6.481545166720359
7.5,-9.669899300155521,-3.560064670813887,8.459552099533425,0.897486193064304,3.7841114591535012,6.6072049583426145
7.5200000000000005,-1.4958993001555427,0.28293532918613096,11.875552099533422,0.9049977972672724,3.9071218036878546,6.726471033537006
7.54,6.526036035577438,2.290037476387343,5.472293442464972,0.912365792160935,4.027819422561963,6.839163155838172
7.5600000000000005,4.569455766615312,3.9415936166958776,1.921818399611515,0.9196030587448288,4.145946624467381,6.945114171108605
7.58,1.301834201103766,2.17058570701953,0.4333964320272414,0.9267188293955619,4.261251270441228,7.044171146298595
7.6000000000000005,1.9811006998445464,4.979935329186134,1.200552099533411,0.9337184854835973,4.373488579829729,7.1361964834984635
7.62,-1.4958993001555427,3.7599353291861064,4.616552099533408,0.9406034085595767,4.482422902745991,7.221069007126237
7.640000000000001,-3.405148471925049,-0.3129552440494828,5.90801169194391,0.9473708852883465,4.587829443519881,7.298685019975058
7.66,0.4322608146220832,1.622222273231963,6.282385958930846,0.9540140675418924,4.689495920291863,7.36895932038552
7.68,2.5364031705205528,3.3114551694657868,3.1889207044750467,0.9605219889043456,4.787224146499955,7.4318261694718135
7.7,3.2621006998444955,5.406935329186126,6.324552099533435,0.9668796374850191,4.880831520061274,7.487240195040591
7.72,3.2621006998444955,2.9669353291861285,4.677552099533443,0.9730680833258113,4.970152405576018,7.535177217539661
7.74,4.6651006998445155,1.5639353291861084,7.788552099533433,0.9790646579208157,5.0550393944805165,7.575634982498234
7.76,-2.8575368508080317,7.581100570068456,7.067675467385778,0.9848431839350589,5.135364428261811,7.608633783157153
7.78,-13.359299130807436,10.004517208949059,9.001796130016025,0.9903742547001088,5.211019770571099,7.634216956513824
7.8,-0.6418993001555009,3.7599353291861064,13.644552099533428,0.9956255642301002,5.281918815224103,7.652451236208268
7.82,5.9461006998444645,2.5399353291861075,11.265552099533409,1.0005622877224767,5.347996718997925,7.663426946912941
7.84,3.20110069984446,2.6009353291861146,10.045552099533438,1.0051475091570654,5.409210851027235,7.6672580274888915
7.86,2.4081006998444536,6.1999353291861325,9.435552099533425,1.009342688268341,5.465541053739669,7.6640818742767385
7.88,4.9701006998444655,9.12793532918613,9.008552099533404,1.0131081564706967,5.516989712603003,7.654059001104671
7.9,-1.6788993001555355,3.6989353291861278,3.884552099533437,1.0164036313835965,5.563581633405156,7.637372518012845
7.92,-5.582899300155532,7.907935329186131,2.9085520995334377,1.0191887414206326,5.605363727288343,7.6142274354067165
7.94,1.3101006998444973,6.1999353291861325,7.544552099533405,1.0214235537698846,5.642404506072527,7.584849803729205
7.96,4.6651006998445155,3.088935329186114,9.252552099533432,1.023069099761437,5.674793393404464,7.549485700441865
7.98,2.2093237364935745,3.907600041228267,5.414738696391885,1.0240878908358457,5.702639860361383,7.508400076375977
8.0,1.4321006998444545,5.772935329186112,4.0675520995334296,1.0244444170743183,5.726072396811013,7.461875473301706
8.02,-5.094899300155475,6.1999353291861325,4.677552099533443,1.024105619879617,5.745237331773809,7.410210624691709
8.040000000000001,5.641100699844515,2.8449353291861144,9.069552099533439,1.0230413311416104,5.7602975172689455,7.353718951997089
8.06,9.850100699844461,3.8209353291861134,8.764552099533432,1.0212246721554787,5.771430891027481,7.292726968713801
8.08,1.5541006998445255,4.003935329186106,5.043552099533429,1.0186324061810852,5.778828934285334,7.227572604127285
8.1,-6.3985041049603835,5.576489683540418,5.252087835268982,1.015245239636473,5.782695041442718,7.158603458550012
8.120000000000001,-1.9838993001554854,5.406935329186126,5.836552099533435,1.0110480692482384,5.78324281846699,7.08617500240519
8.14,4.6651006998445155,5.2239353291861335,9.496552099533403,1.0060301750641143,5.78069432670803,7.010648732158132
8.16,4.909100699844544,2.356935329186115,6.629552099533441,1.000185360308329,5.775278288693597,6.932390296324933
8.18,3.2621006998444955,4.003935329186106,5.3485520995334355,0.9935120385202185,5.767228272595269,6.851767604767377
8.2,-0.27589930015551545,7.663935329186131,2.481552099533417,0.9860132680238307,5.756780872106843,6.769148934699341
8.22,-4.3628993001555045,5.467935329186133,6.568552099533406,0.9776967348666126,5.744173898151187,6.684901047234266
8.24,0.5781006998445264,3.088935329186114,9.31355209953341,0.9685746873545339,5.7296445982779245,6.599387328291188
8.26,4.360100699844452,0.5879353291861094,10.960552099533402,0.9586638266301767,5.713427919249178,6.512965966975233
8.28,1.6761006998444827,0.6489353291861164,-7.15644790046656,0.9479851576385712,5.695754828078263,6.4259881837518105
8.3,4.9701006998444655,9.12793532918613,3.884552099533437,0.9365638040475861,5.676850705964608,6.338796520498992
8.32,-1.6608205367735844,7.907935329186131,7.710846069383463,0.924428790549535,5.656933827638797,6.25172320431282
8.34,-9.669899300155521,-2.5840646708138877,11.69255209953343,0.9116127969488231,5.63621393614444,6.165088595461668
8.36,-2.166899300155478,-1.6690646708138672,11.021552099533437,0.8981518896713908,5.614890921122695,6.079199727145805
8.38,4.9701006998444655,5.955935329186133,4.616552099533408,0.884085236270083,5.593153607317172,5.994348942611529
8.4,6.861100699844542,13.458935329186119,-4.167447900466584,0.8694548063603807,5.5711786581316085,5.910812635327671
8.42,-0.7028993001555364,13.275935329186126,-1.9714479004665577,0.8543050593259063,5.549129596181206,5.828850099675623
8.44,-8.266899300155501,-2.5840646708138877,10.533552099533438,0.8386826172780991,5.527155940430264,5.748702500476789
8.46,-4.42389930015554,0.09993532918610981,9.008552099533404,0.8226359219101843,5.505392459568167,5.670591967855915
8.48,5.3988152274442855,4.736513724039078,5.590920199769743,0.8062148743866091,5.483958543263041,5.594720820104948
8.5,10.196161501699873,6.40913016020003,0.7242447768031341,0.789470456282498,5.462957694283688,5.521270913879634
8.52,3.857677977226008,5.440317792509677,0.12207376449354312,0.7724543272174862,5.4424771435452275,5.450403119783589
8.540000000000001,-0.1538993001554445,2.5399353291861075,6.263552099533399,0.755218393688996,5.422587587793518,5.382256921245427
8.56,5.153100699844458,1.5639353291861084,8.703552099533454,0.7378143453969329,5.403343047639716,5.316950133704133
8.58,6.190100699844493,5.955935329186133,2.6645520995334095,0.7202931592512878,5.384780842440698,5.2545787390086955
8.6,-2.26476692496633,6.658096700845236,6.108760369830936,0.70270457537121,5.366921677369434,5.195216827762318
8.620000000000001,-7.961899300155551,5.528935329186112,5.2875520995334,0.6850965528111261,5.349769836507436,5.13891664121096
8.64,-0.65173604503752,5.739191944263651,6.816450252304817,0.6675147153212718,5.3333134743992865,5.08570870412743
8.66,0.5781006998445264,7.358935329186124,5.653552099533442,0.6500017984798635,5.317524997899588,5.035602040351328
8.68,4.177100699844459,5.162935329186126,7.0565520995334055,0.6325971083469293,5.302361530401803,4.98858446300674
8.700000000000001,5.397100699844486,2.356935329186115,7.544552099533405,0.6153359991889342,5.287765451302234,4.944622932122818
8.72,-1.0539324812821824,5.034974598592556,5.611891977767824,0.5982493757706889,5.273665004424232,4.903663973543682
8.74,-0.6727716641951438,3.8295335533812978,5.653552099533442,0.5813632254993935,5.259974969718824,4.8656341545855835
8.76,5.214100699844494,5.2239353291861335,4.7995520995334005,0.5646981869852343,5.246597392541315,4.830440613723567
8.78,3.445100699844488,4.552935329186113,5.3485520995334355,0.548269163116381,5.23342236421446,4.797971643371848
8.8,-5.7658993001555245,6.443935329186132,6.507552099533427,0.532084987816956,5.220328846827874,4.768097326252664
8.82,-7.644555177296525,5.8844575973491215,4.2004117569461386,0.5161481564040891,5.207185534684494,4.740670226851769
8.84,-1.757538790601731,7.794982644927543,2.033615611817332,0.5004546297365619,5.193851744689547,4.715526140199996
8.86,4.9701006998444655,7.907935329186131,2.420552099533438,0.48499372113069644,5.180178328402328,4.692484900787436
8.88,1.7371006998445182,1.0149353291861303,3.152552099533409,0.4697480718109141,5.166008599519613,4.671351254555936
8.9,-2.6548993001555345,2.7839353291861073,3.2135520995334446,0.4546937167606818,5.151179272106412,4.6519157962417745
8.92,-3.3868993001555054,9.37193532918613,1.749552099533446,0.4398002401299613,5.135521406392233,4.6339559728105915
8.94,1.1236109784487658,5.25749605409824,4.247367625635683,0.4250310181706825,5.118861359742666,4.61723715171215
8.96,6.411812785705764,2.056888198994721,4.374615795287025,0.41034354678633683,5.101021740475556,4.6015137505788895
8.98,5.641100699844515,5.040935329186112,4.433552099533415,0.39568984940612273,5.0818223621933285,4.586530423011588
9.0,1.3101006998444973,4.918935329186127,3.9455520995334155,0.3810169598168401,5.06108119660519,4.5720232934178755
9.02,-6.314899300155503,3.5159353291861066,5.104552099533407,0.36626747505401697,5.03861532301908,4.557721232675164
9.040000000000001,-8.693899300155522,4.7969353291861125,4.860552099533436,0.3513801753432168,5.0142418724394195,4.543347165691129
9.06,5.049796803740525,3.9098210434718643,5.3857858657671684,0.33629070957580304,4.987778963685323,4.5286194015955905
9.08,5.092100699844536,5.284935329186112,6.324552099533435,0.3209323440695278,4.959046628405832,4.5132529772427885
9.1,-3.3868993001555054,3.271935329186107,4.616552099533408,0.3052367695673228,4.927867721363569,4.496961004979124
9.120000000000001,-3.1428993001554772,6.931935329186132,6.507552099533427,0.28913495861854027,4.894068811893318,4.479456016288938
9.14,-7.229899300155466,7.114935329186125,2.420552099533438,0.2725580641435316,4.857481052096853,4.460451293918737
9.16,3.5804791343298388,3.331706241385445,5.715222511061069,0.2554383493294149,4.817941017263546,4.43966218621685
9.18,4.909100699844544,5.2239353291861335,3.6405520995334086,0.2377101374222498,4.7752915143891235,4.416807398446995
9.200000000000001,2.7131006998445173,1.7469353291861296,4.372552099533436,0.2193107673969613,4.729382355462973,4.391610256536581
9.22,-1.190899300155479,3.088935329186114,4.128552099533408,0.20018153952971074,4.68007109297041,4.363799939089808
9.24,-3.6308993001555336,5.711935329186133,2.3595520995334027,0.18026863489940734,4.627223715270921,4.333112673656451
9.26,-2.6548993001555345,5.955935329186133,6.263552099533399,0.15952399431695297,4.57071529901315,4.299292893281797
9.28,1.49310069984449,1.075935329186109,1.200552099533411,0.13790614342924262,4.510430614911258,4.262094349263521
9.3,7.593100699844513,7.72493532918611,5.897552099533414,0.11538095068524881,4.44626468260438,4.221281175824928
9.32,7.105100699844456,4.7969353291861125,-4.167447900466584,0.09192230404493468,4.378123270193367,4.17662890213417
9.34,2.2861006998444964,8.090935329186124,1.9935520995334173,0.0675126924508217,4.30592333427337,4.127925406643124
9.36,-3.874899300155448,-1.8520646708138884,9.740552099533431,0.04214368050395667,4.229593396824338,4.074971807715281
9.38,-3.1090600880613692,1.9807640053211903,5.114080729858129,0.01581626916972348,4.149073856243696,4.017583282787925
9.4,8.020100699844534,13.031935329186126,-0.20244790046655226,-0.011458860187290115,4.064317230732323,3.955589806543853
9.42,4.909100699844544,12.97093532918612,1.200552099533411,-0.039661218254534336,3.9752883326407873,3.8888367978381195
9.44,-4.3628993001555045,0.7709353291861305,6.019552099533428,-0.06876049501890846,3.881964372714469,3.8171856655324987
9.46,-8.57189930015545,-3.316064670813887,9.252552099533432,-0.09871665846851,3.7843349948239995,3.7405142438892365
9.48,-4.606899300155533,0.3439353291861096,7.361552099533412,-0.12948015915469974,3.682402244955629,3.658717108246762
9.5,5.153100699844458,3.7599353291861064,3.3965520995334373,-0.16099223369753277,3.5761804809833952,3.571705762243598
9.52,2.225100699844461,5.772935329186112,2.8475520995334023,-0.1931853013175291,3.4656962299648235,3.47940868991355
9.540000000000001,1.7981006998445537,1.9909353291861294,3.335552099533402,-0.2259834498798291,3.350987997637997,3.381771269265301
9.56,1.49310069984449,4.064935329186113,4.616552099533408,-0.25930300938785295,3.2321060324465853,3.2787555471926657
9.58,3.3841006998444527,3.027935329186107,4.128552099533408,-0.2930532101002587,3.109112045193966,3.1703398778277267
9.6,-2.898899300155449,4.491935329186106,4.860552099533436,-0.3271369200751128,2.9820788852413025,3.0565184278913833
9.620000000000001,-5.155899300155511,3.6989353291861278,4.128552099533408,-0.3614514541980076,2.85109017435959,2.9373005538928063
9.64,-4.606899300155533,1.25893532918613,0.46855209953344,-0.39588944456116604,2.7162398996310837,2.812710057621147
9.66,-2.534587445550069,3.993487304953704,2.187000123765869,-0.4303397612076458,2.5776319671957255,2.682784328190068
9.68,2.1958428455276873,4.503277893765951,1.7547620134270083,-0.4646884732338106,2.4353797190882256,2.547573380510254
9.700000000000001,3.872100699844509,3.088935329186114,3.6405520995334086,-0.49881984260551426,2.28960541578528,2.4071388010435864
9.72,0.5171006998444909,1.5029353291861298,5.531552099533428,-0.5326173453703609,2.1404396874686906,2.261552612008016
9.74,1.2491006998444618,1.8689353291861153,6.019552099533428,-0.5659647158239809,1.9880209575978012,2.110896065362235
9.76,0.2969812952261416,2.4305599324477027,5.708770551979623,-0.5987470082228018,1.8324948430733516,1.9552583786318234
9.78,-1.8570632106612401,1.0994927221822866,4.718287994475089,-0.6308516685654156,1.6740135357142978,1.7947354264423483
9.8,-4.529506143079556,0.31583548470712103,2.253243234836332,-0.6621696068812438,1.5127351697872102,1.6294284045002136
9.82,-1.4958993001555427,1.8079353291861082,1.2615520995334464,-0.6925962591439853,1.3488231800311463,1.4594424862032507
9.84,-1.4958993001555427,3.6989353291861278,-0.7514479004665873,-0.72203262775252,1.18244565413258,1.2848854952820283
9.86,1.9811006998445464,2.7839353291861073,0.46855209953344,-0.7503862904850739,1.0137746830333079,1.1058666201279315
9.88,2.966452168428037,0.11077607772974374,-1.769956637608716,-0.7775723693657954,0.8429857120845394,0.9224951963364001
9.9,3.311465287369622,-1.4526558176951578,-2.4827187254164045,-0.8035144520151312,0.6702568961906521,0.7348795834832815
9.92,0.9441006998445118,-0.14406467081388996,-1.4224479004665795,-0.8281454579655284,0.49576846255862694,0.5431261605189834
9.94,-6.558899300155531,2.2959353291861078,-2.7034479004665855,-0.8514084409363539,0.31970208486314977,0.3473384616662858
9.96,-6.13189930015551,4.003935329186106,-2.5204479004665927,-0.873257315865729,0.14224027214601342,0.1476164715240298
9.98,-0.8060996500217241,1.8327420795462546,-0.8108974785690758,-0.8936574979778916,-0.0364342250379881,-0.055943905581059994
10.0,3.4338023836471434,-1.2441461787859218,-1.0831075637060485,-0.9125864415604598,-0.21613898899867712,-0.2632511908203399
10.02,-3.51609460402232,-2.804591466393962,-3.833548729195648,-0.930034068372834,-0.3966924869307169,-0.47421848328989435
10.040000000000001,-6.741899300155524,0.5879353291861094,-3.923447900466556,-0.9460030782882419,-0.577914596631735,-0.6887634157799325
10.06,-1.4348993001555073,0.09993532918610981,-2.947447900466557,-0.9605091367008451,-0.7596271014444813,-0.9068079133188613
10.08,1.066100699844469,0.5879353291861094,-1.4834479004665582,-0.9735809347225145,-0.9416541503506788,-1.1282777573032128
10.1,2.261129400750897,-1.9689045499679367,0.8029463593521354,-0.9852601201640763,-1.123822679999369,-1.3531019616652895
10.120000000000001,1.7981006998445537,-2.4010646708138665,0.8955520995334041,-0.9956010995752034,-1.3059627960892306,-1.5812119710607582
10.14,-1.4958993001555427,-1.059064670813882,-3.191447900466585,-1.0046707130481343,-1.4879081118339657,-1.812540693759102
10.16,-5.887899300155482,0.5879353291861094,-3.0084479004665923,-1.0125477834437664,-1.6694960416117937,-2.0470213833510194
10.18,-7.046899300155474,-1.1810646708138677,-3.191447900466585,-1.0193225408705702,-1.85056804857081,-2.284586383834275
10.200000000000001,-4.7898993001555255,-3.560064670813887,-0.2634479004665877,-1.0250959231063808,-2.0309698456832583,-2.525165752907099
10.22,5.509945737805854,-1.0104118779720872,-0.9035095870177368,-1.0299787543412204,-2.210551550167348,-2.7686857789462924
10.24,2.7741006998445528,-0.8760646708138893,-4.594447900466548,-1.0340908079907338,-2.389167791382427,-3.0150674079842164
10.26,-1.6178993001555,-1.8520646708138884,-2.4594479004665573,-1.0375597627967335,-2.5666777725591894,-3.2642245974624675
10.28,-8.266899300155501,-3.01106467081388,-5.143447900466583,-1.0405200631857945,-2.7429452870909805,-3.516062613471391
10.3,-7.290899300155502,-2.5230646708138806,-11.243447900466549,-1.0431116946971708,-2.9178386903657976,-3.7704762880155345
10.32,5.311811285794575,-1.000855649555616,-1.426943745939813,-1.0454788849629115,-3.091230828221172,-4.027348253170061
10.34,5.397100699844486,-7.708064670813883,1.444552099533439,-1.0477687419624817,-3.262998923251109,-4.286547170149856
10.36,-0.9468993001554509,-5.0850646708138925,-1.9714479004665577,-1.0501298436716908,-3.4330244205467206,-4.547925973000529
10.38,-2.166899300155478,-1.8520646708138884,-8.010447900466545,-1.0527107946365994,-3.6011927951638913,-4.811320147715394
10.4,-1.8618993001555282,2.7839353291861073,-9.718447900466572,-1.0556587641349426,-3.7673933248631606,-5.076546067049427
10.42,-0.7638993001554581,-0.8150646708138822,-11.792447900466584,-1.0591180184112179,-3.931518833172242,-5.343399399610508
10.44,-1.0078993001554863,-7.464064670813883,-8.864447900466587,-1.0632284577762452,-4.093465408591728,-5.61165361076974
10.46,-5.338899300155504,-6.793064670813891,-1.910447900466579,-1.0681241688114835,-4.253132105076203,-5.881058573903018
10.48,-0.7028993001555364,-3.621064670813894,-1.7274479004665864,-1.0739320020737457,-4.410420627426476,-6.151339313092011
10.5,0.7001006998444836,-3.9870646708138793,-5.143447900466583,-1.0807701861480643,-4.565235004429403,-6.422194900921681
10.52,5.153100699844458,-3.0720646708138872,-5.3874479004665545,-1.0887469895290338,-4.717481253178315,-6.693297535609449
10.540000000000001,3.6891006998445164,-1.913064670813867,-4.167447900466584,-1.097959442172752,-4.867067039282696,-6.964291819842867
10.56,-5.826899300155446,-5.817064670813892,-7.522447900466545,-1.1084921277541118,-5.013901338516983,-7.234794260270017
10.58,-8.083899300155508,-4.841064670813893,-10.4504479004666,-1.1204160552850284,-5.157894105419353,-7.5043930028175145
10.6,-5.277899300155468,-3.1330646708138943,-7.766447900466574,-1.1337876158163591,-5.29895595372659,-7.772647815624206
10.620000000000001,-2.2278993001555136,-5.268064670813885,-9.77944790046655,-1.148647628420283,-5.436997852852006,-8.039090328704727
10.64,-5.826899300155446,-5.024064670813885,-4.411447900466555,-1.1650204806994677,-5.571930844155386,-8.303224537653225
10.66,1.49310069984449,-1.6080646708138886,-7.583447900466581,-1.1829133720230016,-5.703665780412136,-8.564527577488267
10.68,0.5171006998444909,-0.8150646708138822,-11.731447900466549,-1.202315670888089,-5.832113091422172,-8.822450771401606
10.700000000000001,4.726100699844551,-5.512064670813885,-7.095447900466581,-1.2231983999664409,-5.957182577852149,-9.0764209571492
10.72,4.909100699844544,-9.172064670813882,-4.228447900466563,-1.245513862850081,-6.078783233912518,-9.32584209123788
10.74,-0.8858993001555291,-7.952064670813883,-6.180447900466561,-1.2691954248895718,-6.196823097468021,-9.570097128336082
10.76,-2.6557798775745534,-5.038954434595503,-8.556646063194059,-1.29415745688723,-6.311209124534692,-9.808550170362675
10.78,-3.32589930015547,-8.379064670813875,-5.570447900466547,-1.3202954456486418,-6.421847084767642,-10.040548875919486
10.8,-1.6178993001555,-8.440064670813882,-8.315447900466552,-1.3474862709934319,-6.528641475524797,-10.265427116016825
10.82,-5.606218924396725,-4.271037176255492,-11.498482268664544,-1.3755886459795974,-6.631495453666295,-10.482507856955555
10.84,0.044941617014735646,-4.907507614290565,-10.60867274938239,-1.4044437159892391,-6.730310785813301,-10.691106246388898
10.86,2.0875067148822697,-6.511455648257207,-9.495086998210576,-1.433875812325921,-6.824987819090386,-10.890532874400062
10.88,-4.301899300155469,-5.268064670813885,-13.134447900466569,-1.4636933562503807,-6.91542547514139,-11.080097178208657
10.9,-3.3868993001555054,-3.25506467081388,-14.171447900466546,-1.4936899092278888,-7.001521270229857,-11.2591109569355
10.92,0.7611006998445191,-6.976064670813884,-13.683447900466547,-1.5236453643334396,-7.083171363638255,-11.426891961553842
10.94,3.171704478450293,-9.641219274326655,-13.9505623230317,-1.5533272726548761,-7.160270635628916,-11.582767524715475
10.96,1.0051543498002298,-6.627541143988619,-14.075629079006365,-1.582492297500647,-7.232712795163699,-11.726078195709027
10.98,-0.031899300155487254,-4.536064670813886,-13.683447900466547,-1.610887787827639,-7.300390516801088,-11.85618134730634
11.0,-2.593899300155499,-9.111064670813874,-16.306447900466594,-1.638253459900421,-7.363195606065724,-11.972454723318428
11.02,-3.8138993001555264,-9.172064670813882,-16.367447900466573,-1.6643231729692212,-7.421019192959197,-12.074299898029428
11.040000000000001,0.5570539162183739,-8.572189179053858,-15.890914992438727,-1.6888267817201268,-7.473751953729063,-12.161145621331531
11.06,-4.593175025540182,-7.035826681278481,-13.794093215196153,-1.7114920462733008,-7.521284361546834,-12.232451026557232
11.08,-9.099886627344674,-7.916311502611176,-12.707447900466548,-1.7320465797069282,-7.563506967693351,-12.287708681736326
11.1,-2.9598993001554845,-4.780064670813886,-13.927447900466575,-1.7502198132103621,-7.600310716161239,-12.32644746890893
11.120000000000001,-0.1538993001554445,-5.024064670813885,-15.452447900466552,-1.7657449600396196,-7.63158729574336,-12.348235279595107
11.14,1.3101006998444973,-6.793064670813891,-14.842447900466595,-1.7783609615389873,-7.657229534172389,-12.352681517258704
11.16,-6.988586815161545,-5.489451465531783,-11.779046940082331,-1.7878144009324495,-7.677131838495529,-12.339439399873367
11.18,-8.754899300155444,-5.756064670813885,-9.77944790046655,-1.7938613722744012,-7.691190684728589,-12.308208057932548
11.200000000000001,3.9941006998444664,-4.231064670813879,-18.80744790046657,-1.7962692927523494,-7.699305158282617,-12.258734425431115
11.22,1.066100699844469,-4.780064670813886,-15.69644790046658,-1.794818647477081,-7.701377544964308,-12.19081492310715
11.24,-2.166899300155478,-9.660064670813881,-2.032447900466593,-1.7893046574640845,-7.697313970512894,-12.104296934565756
11.26,-3.6308993001555336,-9.965064670813888,-6.119447900466582,-1.7795388627524897,-7.687025084636404,-11.999080077204486
11.28,-0.2944265207859593,-3.721496189438521,-16.822098903331725,-1.7653506125896765,-7.6704267837249605,-11.875117270804305
11.3,1.49310069984449,-4.292064670813886,-18.31944790046657,-1.74658845379491,-7.647440965419792,-11.732415606132584
11.32,-5.033899300155554,-8.135064670813875,-13.927447900466575,-1.7231214077905337,-7.617996308004876,-11.571037013937143
11.34,-11.438899300155526,-11.856064670813879,-9.04744790046658,-1.6948401265735482,-7.582029067424222,-11.391098733243183
11.36,-10.767899300155477,-8.989064670813889,-5.8144479004665754,-1.6616579180859956,-7.5394838841564455,-11.19277357854344
11.38,3.341791584322184,-5.055638226770458,-5.668767733499133,-1.62351163285598,-7.490314591803866,-10.976290007491942
11.4,7.507365943746951,-3.2876104025211523,-12.322850339491161,-1.580362407310652,-7.434485019893806,-10.741931991782288
11.42,0.7611006998445191,-3.8040646708138866,-15.452447900466552,-1.5321962638768885,-7.371969784756193,-10.49003869270948
11.44,-0.1538993001554445,-8.440064670813882,-12.707447900466548,-1.4790245711715309,-7.302755063179352,-10.221003940272187
11.46,-1.4348993001555073,-10.575064670813873,-10.206447900466571,-1.420884367352989,-7.226839343041995,-9.935275512555668
11.48,-1.7398993001554572,-10.14806467081388,-10.75544790046655,-1.3578385468995862,-7.1442341438195465,-9.633354211930358
11.5,-3.36832284618194,-3.2091560817782576,-10.496442636633047,-1.2899759080438642,-7.054964699145851,-9.31579273606375
11.52,-6.802899300155445,-5.9390646708138775,-12.951447900466576,-1.2174110563860705,-6.9590705943410835,-8.983194343667883
11.540000000000001,-4.606899300155533,-5.329064670813892,-8.742447900466573,-1.1402841601113525,-6.8566063535194095,-8.636211316518676
11.56,-1.3738993001554718,-3.560064670813887,-12.707447900466548,-1.0587605536086957,-6.747641972307684,-8.275543220703149
11.58,-0.9468993001554509,-3.316064670813887,-10.511447900466578,-0.9730301889290427,-6.6322633925402865,-7.901934971674181
11.6,-1.6053859877865295,-4.473862574377848,-8.155907963359626,-0.8833069377940869,-6.510572914626546,-7.516174709657929
11.620000000000001,-2.4108993001555064,-7.464064670813883,-4.167447900466584,-0.789827749796917,-6.382689542011532,-7.119091494144991
11.64,-1.190899300155479,-6.244064670813884,-2.215447900466586,-0.6928516744256221,-6.248749250627358,-6.711552828237005
11.66,0.5171006998444909,-6.488064670813884,-3.618447900466549,-0.5926587557643921,-6.108905174960586,-6.2944620248017324
11.68,-1.190899300155479,-5.0850646708138925,-4.228447900466563,-0.4895488096383094,-5.963327701888487,-5.8687554259543395
11.700000000000001,-0.45889930015550817,-5.0850646708138925,-7.278447900466574,-0.3838400937040308,-5.81220446389968,-5.435399485214587
11.72,1.5541006998445255,-7.52506467081389,-8.864447900466587,-0.27586788140858753,-5.6557402243392385,-4.99538771859714
11.74,3.6891006998445164,-4.597064670813893,-8.254447900466573,-0.1659829507652988,-5.49415664846212,-4.549737528167322
11.76,5.336100699844451,-4.963064670813878,-5.143447900466583,-0.05454999847012443,-5.327691955225579,-4.09948690030425
11.78,-1.0078993001554863,-6.549064670813891,-6.058447900466547,0.058054011284854434,-5.156600446018845,-3.645690981388828
11.8,-3.6308993001555336,-9.111064670813874,-7.278447900466574,0.17144155612233192,-4.9811519079676625,-3.18941853539106
11.82,2.225100699844461,-5.268064670813885,-4.106447900466549,0.28521631853072893,-4.801630891092936,-2.731748290045177
11.84,4.177100699844459,-4.841064670813893,-4.655447900466584,0.39897500061026114,-4.618335860668519,-2.2737651804781787
11.86,-0.5198993001555436,-2.889064670813866,-3.191447900466585,0.5123091896644651,-4.431578228773612,-1.8165565012555076
11.88,-7.4738993001554945,-2.4010646708138665,-3.1304479004665495,0.6248072742833061,-4.24168127190471,-1.3612079798189738
11.9,-5.516799005749423,-6.500695681608823,-1.4090147306924028,0.7360564110112899,-4.048978943871747,-0.9087997860461439
11.92,1.1040164992772097,-5.123644141012438,1.4215833199683177,0.8456445416031821,-3.8538145946606517,-0.46040249400073563
11.94,1.7981006998445537,-2.5840646708138877,-0.44644790046658045,0.9531624591335313,-3.656539606820122,-0.01707301277307849
11.96,1.0051006998445473,-4.109064670813893,0.9565520995334396,1.0582059179105419,-3.457511961880299,0.42014949652218636
11.98,-0.23633637293392132,-0.08511272067318126,0.5591813717490584,1.1603777787997098,-3.257094750614959,0.850247701116813
12.0,-0.6708243466439081,0.0478004414732337,-1.6848761653785875,1.2592901795646303,-3.055654642257186,1.272230159025031
12.02,-2.686472636913625,-2.794987095678985,-0.9451342606003181,1.3545667191186408,-2.8535603284775206,1.6851353495416408
12.040000000000001,-6.13189930015551,-2.035064670813881,-7.095447900466581,1.4458446441231405,-2.6511809577130907,2.088035658701792
12.06,-2.898899300155449,6.1999353291861325,-2.032447900466593,1.5327770251969817,-2.4488845744326424,2.480041306585567
12.08,2.9571006998445455,-3.0720646708138872,-4.899447900466555,1.6150349076151873,-2.2470365764904514,2.8603042019349756
12.1,7.148247381766905,-2.5043877829419086,5.763966287176473,1.6923094179233764,-2.0459982019620266,3.2280217065739043
12.120000000000001,1.2280484244234673,-2.261665584363933,4.255061827159204,1.7643138044470696,-1.8461250546846633,3.5824402881274677
12.14,-5.747492816365187,1.7387208653462267,-0.8316149827620252,1.830785387773078,-1.6477656755230212,3.922859035802028
12.16,3.445100699844488,2.051935329186108,-2.64244790046655,1.8914873975077526,-1.4512601648394226,4.248633011759522
12.18,9.301100699844483,2.9669353291861285,-0.20244790046655226,1.9462106728918775,-1.2569388607750773,4.559176409989858
12.200000000000001,4.360100699844452,-1.5470646708138815,5.043552099533429,1.9947752058628336,-1.0651210768949992,4.853965494324663
12.22,-9.087098123684381,-5.080232513950861,7.57615249169049,2.0370315061390825,-0.8761139008846919,5.132541286204934
12.24,0.6499485079511764,-2.3880977560080847,6.8240810490783606,2.07286176986373,-0.690211053732321,5.394511971370882
12.26,11.436100699844474,-2.7670646708138804,4.128552099533408,2.1021808358809184,-0.5076918073562533,5.639554994251374
12.280000000000001,12.290100699844515,-1.913064670813867,4.372552099533436,2.124936915438912,-0.32881995882936765,5.867418810456247
12.3,4.177100699844459,1.8079353291861082,3.2135520995334446,2.1411120823171426,-0.15384286107538303,6.077924270986913
12.32,-7.116814144804377,-0.22623184311242306,4.975309187094982,2.1507225132722048,0.017009487750280883,6.270965615343986
12.34,-1.3059763284140447,-1.2956412432841635,6.804795034811527,2.153818474212081,0.18352529196850353,6.446511053716824
12.36,6.800100699844506,-0.2050646708138686,8.215552099533454,2.150484053480702,0.3455117376894803,6.604602920846171
12.38,3.3841006998444527,1.0149353291861303,5.653552099533442,2.14083664728361,0.502795697585364,6.745357386542352
12.4,1.7371006998445182,0.8319353291861091,4.677552099533443,2.125026203428798,0.6552243544643361,6.868963710844639
12.42,-0.031899300155487254,0.5879353291861094,4.616552099533408,2.1032342302853135,0.8026657364114653,6.975683035545992
12.44,-0.9269388127546686,1.6063964672435675,9.08174055333648,2.0756725796239435,0.945009155784863,7.065846707793862
12.46,1.120513010899284,1.1071296471608423,12.773566304596589,2.0425820142725177,1.082165544161958,7.139854135183154
12.48,5.641100699844515,4.003935329186106,16.511552099533446,2.0042305731393215,1.2140676754073096,7.198170175392305
12.5,6.129100699844457,0.8929353291861162,13.4005520995334,1.9609117469262978,1.3406702693397756,7.241322068055391
12.52,4.116100699844537,3.271935329186107,8.764552099533432,1.9129424786470373,1.4619499690851852,7.269895923354908
12.540000000000001,-3.874899300155448,7.114935329186125,0.5295520995334186,1.8606610049256913,1.5779051861919302,7.284532790847967
12.56,-6.510887502402604,1.7334330819949035,4.5201515377358295,1.8044245570771784,1.6885558089851633,7.285924341828915
12.58,0.5781006998445264,3.5159353291861066,8.215552099533454,1.7446069438717502,1.793942771514745,7.274808206771814
12.6,3.628100699844481,4.979935329186134,6.141552099533442,1.6815960389377935,1.8941274828575505,7.2519630145728
12.620000000000001,0.5171006998444909,5.284935329186112,3.9455520995334155,1.6157911944828638,1.9891911192396137,7.218203182815029
12.64,-0.6418993001555009,3.271935329186107,4.677552099533443,1.5476006007607979,2.0792337841300794,7.174373509666144
12.66,0.7611006998445191,3.027935329186107,3.884552099533437,1.4774386091814742,2.164373544099041,7.12134361927797
12.68,2.469100699844489,2.7229353291861287,1.444552099533439,1.4057230365439601,2.2447453509010167,7.060002313503888
12.700000000000001,1.4321006998444545,-0.9370646708138679,0.22455209953341182,1.3328724678946122,2.3204998627054847,6.991251882828922
12.72,3.20110069984446,-1.913064670813867,3.884552099533437,1.2593035755399247,2.3918021791618242,6.916002428344454
12.74,3.9331006998445446,2.2959353291861078,3.9455520995334155,1.1854284720073218,2.45883050562222,6.83516624435069
12.76,4.909100699844544,8.15193532918613,1.9325520995334386,1.1116521155841215,2.521774761152139,6.749652307962431
12.780000000000001,-5.094899300155475,-1.4250646708138675,-1.4224479004665795,1.0383697885715413,2.580835143293795,6.660360918486842
12.8,-5.643899300155454,-0.2050646708138686,-0.9954479004665586,0.9659646703238072,2.6362206608921244,6.568178525731313
12.82,-3.1428993001554772,5.955935329186133,2.1155520995334314,0.8948055286544724,2.68814764536988,6.473972782490783
12.84,-0.7638993001554581,4.247935329186106,3.335552099533402,0.8252445529976226,2.7368382503486126,6.378587851669871
12.86,-2.166899300155478,3.088935329186114,4.9215520995334145,0.7576153501773987,2.7825189488737534,6.282839992862196
12.88,-1.5106623465539224,5.858027713190017,2.466139781666253,0.692231119550707,2.825419036914738,6.187513447617767
12.9,-0.5198993001555436,5.711935329186133,2.6645520995334095,0.6293830200701719,2.8657691518570085,6.093356638010042
12.92,-2.4108993001555064,-0.08306467081388291,6.568552099533406,0.5693387382559117,2.9037998154585147,6.00107868967837
12.94,-3.447899300155541,0.3439353291861096,8.520552099533404,0.512341263111922,2.939740011821913,5.911346287879574
12.96,-3.874899300155448,0.8319353291861091,-8.55944790046658,0.45860787131840175,2.9738158117709044,5.824780872952351
12.98,5.885100699844543,11.872935329186106,1.6885520995334105,0.4083293232326798,3.0062490549631073,5.741956179928093
13.0,1.2491006998444618,2.2959353291861078,7.239552099533455,0.36166926725761445,3.0372560999674403,5.663396125273467
13.02,-3.6308993001555336,-4.048064670813886,7.361552099533412,0.31876384751464415,3.067046651238217,5.5895730409841144
13.040000000000001,-0.8587464264700753,0.11202775455539121,5.770380740774184,0.2797215082719086,3.0958226713645614,5.520906252613015
13.06,2.7741006998445528,8.15193532918613,0.5295520995334186,0.24462298822014267,3.1237773867247807,5.457760994938125
13.08,3.3725862906226944,10.652847432932589,-3.99569862092776,0.21352149758746303,3.151094393479864,5.4004476579959135
13.1,-5.643899300155454,1.3809353291861157,2.481552099533417,0.18644307076587124,3.1779468687676604,5.349221356251582
13.120000000000001,-6.802899300155445,-1.6080646708138886,10.167552099533452,0.1633870869713162,3.2044968906552085,5.304281812882431
13.14,-4.301899300155469,-1.6690646708138672,9.923552099533424,0.1443269514861673,3.2308948707378193,5.265773548840903
13.16,0.5363591651306414,0.5621756458730258,1.3312377268173008,0.12921092919284705,3.257279103888318,5.233786363887729
13.18,5.719009933328238,3.502075497780617,-0.8111922643167043,0.11796311959540151,3.283775438561863,5.208356096094179
13.200000000000001,5.160362604604492,3.9607135478801703,1.2601266145253,0.11048455921050604,3.31049706784134,5.189465647676338
13.22,1.9811006998445464,1.25893532918613,6.324552099533435,0.10665443514219092,3.33754443736827,5.177046266668233
13.24,-2.8378993001555273,3.7599353291861064,3.457552099533416,0.10633139425775012,3.365005262913407,5.170979074155138
13.26,-1.6788993001555355,4.003935329186106,1.200552099533411,0.10935493527008366,3.3929546480782915,5.171096825721352
13.280000000000001,3.1330749782091,5.60246133661673,2.350591253576945,0.1155468744476304,3.421455291140038,5.1771858947013945
13.3,-2.698864765995029,2.1785879999925193,0.6405342113348449,0.12471287803002223,3.450557769018111,5.188988464366364
13.32,-7.107899300155509,5.467935329186133,4.0675520995334296,0.1366440554380708,3.4803008857755953,5.206204915851916
13.34,-6.0708993001554745,7.72493532918611,-3.1304479004665495,0.1511186075536779,3.5107120730269856,5.228496397874629
13.36,0.7611006998445191,6.443935329186132,2.17655209953341,0.16790352374763368,3.5418078300312694,5.255487563044522
13.38,7.188697365008844,2.6213328055269494,5.529902707915774,0.18675631949866411,3.573594192162245,5.286769454009583
13.4,1.8722851378842726,4.914406086941807,7.713157795414092,0.20742680381491385,3.6060672180327984,5.321902520891738
13.42,-7.595899300155452,4.003935329186106,5.3485520995334355,0.22965886395123436,3.6392134875784268,5.360419750005039
13.44,-8.266899300155501,1.3199353291861087,3.152552099533409,0.25319225532469736,3.6730106052249085,5.40182988361879
13.46,1.9811006998445464,0.6489353291861164,4.128552099533408,0.2777643860647798,3.7074277033853056,5.4456207120107525
13.48,6.3731006998444855,4.003935329186106,3.6405520995334086,0.30311208605792955,3.742425941844825,5.491262421627521
13.5,1.8073397509394393,7.29244914566162,4.007490316426012,0.3289733489769747,3.777958998123708,5.538210985731191
13.52,-7.04144939587978,8.321038073283132,-0.944257728162829,0.3550890343906215,3.813973542934606,5.585911585861167
13.540000000000001,-5.399899300155539,4.979935329186134,-1.910447900466579,0.3812045174569036,3.850409694197182,5.633802053741713
13.56,1.4321006998444545,2.5399353291861075,0.2855520995334473,0.40707127538315563,3.8872014436636553,5.6813163238087245
13.58,4.726100699844551,2.8449353291861144,1.444552099533439,0.43244840075852636,3.92427705212519,5.727887885903556
13.6,-0.21945478578575006,4.055069375756265,1.7176764964287503,0.4571040313180039,3.9615594114462835,5.772953225739192
13.620000000000001,-2.0850711632732852,6.83767525314076,1.4970631261493799,0.48081668506432396,3.9989663732123653,5.815955238062905
13.64,-1.190899300155479,6.626935329186125,3.0915520995334305,0.5033764904053256,4.036411044346052,5.856346594928624
13.66,1.5541006998445255,4.308935329186113,2.6645520995334095,0.5245863028194955,4.073802050345272,5.893593049681012
13.68,2.164100699844539,0.3439353291861096,0.9565520995334396,0.5442627013513478,4.111043767601796,5.9271766561633505
13.700000000000001,0.7001006998444836,2.2959353291861078,1.444552099533439,0.562236859516478,4.148036527592508,5.956598882113745
13.72,-5.571234310939148,6.807245657487074,3.4934241340412147,0.5783552865067728,4.184676796819512,5.981383595470769
13.74,-1.4348993001555073,3.7599353291861064,6.995552099533427,0.5924804363124385,4.220857336484747,6.001079902140374
13.76,5.458100699844522,3.027935329186107,6.629552099533441,0.6044911840304287,4.25646734518922,6.015264813760943
13.780000000000001,4.726100699844551,5.162935329186126,4.555552099533429,0.6142831695802262,4.2913925872465315,6.023545724702964
13.8,-1.6788993001555355,8.63993532918613,1.200552099533411,0.6217690096980598,4.325515508954338,6.025562679530809
13.82,-3.874899300155448,7.48093532918611,-0.01944790046655953,0.6268783805994408,4.358715345299718,6.020990415288772
13.84,1.8855537742778812,1.835572869639412,4.321225238691586,0.6295579764000325,4.390868220137072,6.009540166259178
13.86,0.5171006998444909,3.088935329186114,3.6405520995334086,0.6297713511349015,4.421847244118006,5.990961221222442
13.88,-2.4108993001555064,5.650935329186126,6.263552099533399,0.6274986538974475,4.451522616286116,5.9650422245464885
13.9,-8.93789930015555,4.186935329186127,-0.080447900466595,0.6227362673278534,4.4797617364033435,5.931612213420152
13.92,-2.7158993001554563,4.186935329186127,-1.788447900466565,0.6154963598932551,4.506429335253838,5.890541385044162
13.94,9.451529461495555,7.62129218670955,3.0777438438737157,0.6058063618392476,4.531387629748734,5.841741589544842
13.96,0.7611006998445191,1.6249353291861155,9.252552099533432,0.5937083730552133,4.554496509250507,5.785166545970271
13.98,-9.181899300155465,-2.8280646708138875,3.9455520995334155,0.5792585093911528,4.575613759350967,5.720811779581953
14.0,-4.545899300155497,3.2109353291861282,2.17655209953341,0.5625261936502965,4.594595329028596,5.648714279580156
14.02,2.7131006998445173,9.37193532918613,-4.411447900466555,0.543593398262816,4.611295645970458,5.5689518784915375
14.040000000000001,0.9441006998445118,9.798935329186122,-1.2394479004665868,0.5225538466732091,4.625567982544743,5.481642357488871
14.06,-2.9598993001554845,-1.3640646708138888,7.849552099533412,0.4995121790323928,4.637264872363119,5.386942284373163
14.08,-1.3738993001554718,0.5879353291861094,8.825552099533411,0.47458308615719264,4.646238576043638,5.2850455917611985
14.1,0.21210069984454094,5.2239353291861335,4.189552099533444,0.4478904150794416,4.6523415948075195,5.176181903005418
14.120000000000001,-0.21489930015547998,6.1999353291861325,0.2855520995334473,0.41956624955298844,4.655427230435377,5.06061461451562
14.14,1.7981006998445537,4.552935329186113,-4.167447900466584,0.38974996891549374,4.6553501887838244,4.938638746426044
14.16,1.3101006998444973,3.088935329186114,-0.9954479004665586,0.35858728874846824,4.651967222136657,4.810578577758233
14.18,-0.21489930015547998,2.051935329186108,4.616552099533408,0.3262292873064237,4.645137804282977,4.67678508521973
14.200000000000001,-3.081899300155442,5.467935329186133,3.6405520995334086,0.2928314228703598,4.634724831510345,4.537633205564463
14.22,-2.630293655310634,6.254646422874944,3.5032243849115017,0.2585525486993778,4.620595342007341,4.393518940968906
14.24,-7.624502234890815,6.677461391384476,-0.10126217992369624,0.2235539334239332,4.602621245189203,4.244856326907895
14.26,-6.497361516778705,3.601058754878968,-0.7036620062594094,0.1879982947982487,4.58068005165212,4.0920742834250605
14.280000000000001,1.7981006998445537,5.955935329186133,-2.7034479004665855,0.15204885323663414,4.5546555943940215,3.9356133728995832
14.3,1.49310069984449,6.443935329186132,-0.8124479004665659,0.11586840861780362,4.524438732613968,3.775922489177968
14.32,3.338191744303181,5.518840030313591,0.02476120397928328,0.0796184404334565,4.489928030387809,3.6134555034636175
14.34,0.8909588404619013,4.1431759003485755,0.7069093865117155,0.043458229061185905,4.4510304035533785,3.4486678916859694
14.36,-5.161425555204386,3.666692974887197,2.7084101491584267,0.007543995833499295,4.40766172926323,3.282013366877958
14.38,-0.21489930015547998,4.247935329186106,4.0675520995334296,-0.027971938701655485,4.35974741381651,3.1139405392002204
14.4,-1.4958993001555427,2.2959353291861078,1.0175520995334182,-0.06294197681244074,4.307222915256507,2.944889626263952
14.42,0.8221006998445546,0.038935329186131185,0.2855520995334473,-0.09722404310972405,4.250034217554112,2.7752892375436544
14.44,3.9331006998445446,4.674935329186127,1.200552099533411,-0.13068235843773007,4.188138252916319,2.605553258700091
14.46,-5.756772030900302,8.07821776755399,-4.2133756665649935,-0.16318818478696245,4.121503267880146,2.4360778638987806
14.48,-3.081899300155442,6.443935329186132,-2.947447900466557,-0.19462053706334909,4.050109127647962,2.2672386859597653
14.5,6.434100699844521,2.234935329186129,-3.0084479004665923,-0.22486685624228642,3.9739475523515138,2.099388174879468
14.52,3.445100699844488,8.15193532918613,-6.607447900466582,-0.25382363732384444,3.8930222793628224,1.9328531746539523
14.540000000000001,-4.118899300155476,5.467935329186133,-5.8144479004665754,-0.2813970046398469,3.8073491473631296,1.7679327463687526
14.56,-8.01590789614399,1.7222556730256513,-6.267211224248796,-0.3075032256623203,3.7169560999567346,1.6048962623535292
14.58,-3.508535483058073,2.45468085602508,-5.430166091321459,-0.33206915240897056,3.621883108672846,1.4439817919961229
14.6,-3.6308993001555336,4.308935329186113,-5.875447900466554,-0.3550325782425053,3.5221820170039426,1.2853947947468454
14.620000000000001,-6.497899300155495,4.735935329186134,-4.106447900466549,-0.3763424987320747,3.417916308366762,1.1293071302727204
14.64,-4.301899300155469,3.454935329186128,-1.4834479004665582,-0.39595926811270576,3.309160801419253,0.9758563901347852
14.66,-0.3978993001554727,6.687935329186132,-0.7514479004665873,-0.4138546465808395,3.19600127645678,0.8251455502444585
14.68,-1.1869867938089738,2.923350627883898,-4.400092341150131,-0.43001173736528003,3.0785340372304293,0.677242939181792
14.700000000000001,-1.9838993001554854,-1.059064670813882,-3.0084479004665923,-0.44442481576530446,2.956865413667713,0.532182514576752
14.72,-3.081899300155442,1.075935329186109,-3.740447900466563,-0.4570990546939203,2.831111212332421,0.38996443804170067
14.74,-4.118899300155476,4.064935329186113,-4.228447900466563,-0.4680501525563958,2.701396122397667,0.2505559379786999
14.76,-2.7158993001554563,6.382935329186125,-3.1304479004665495,-0.4773038700317897,2.5678530848897765,0.11389244837100021
14.780000000000001,-0.5733787522101298,2.101180991285856,-3.9709109141648806,-0.4848954832134361,2.430622632236524,-0.020120989750259888
14.8,1.0051006998445473,1.8689353291861153,-4.411447900466555,-0.4908691618335272,2.2898522046943484,-0.15160807893118644
14.82,-0.031899300155487254,3.7599353291861064,-4.899447900466555,-0.495277282523956,2.145695450687035,-0.28071938410982344
14.84,-4.850899300155447,0.28293532918613096,-2.2764479004665645,-0.498179687580147,1.9983115191309,-0.4076302368924103
14.86,-7.717899300155523,-3.0720646708138872,-12.707447900466548,-0.49964289927213,1.8478643526919096,-0.5325384436578118
14.88,3.483276113067717,4.758551961417473,-6.5617987269129845,-0.4997392990179216,1.6945219911590736,-0.6556618170329573
14.9,0.016053167851826977,1.1986787783024728,2.190473184237973,-0.49854628066444273,1.5384558935917823,-0.7772355518581098
14.92,-1.190899300155479,-5.451064670813878,-0.080447900466595,-0.4961453878387063,1.3798402867322277,-0.8975094689124983
14.94,0.2731006998444627,2.356935329186115,-5.082447900466548,-0.492621445826394,1.218851545750578,-1.0167451516862493
14.96,-0.27589930015551545,4.308935329186113,-9.535447900466579,-0.48806169777017605,1.0556676119129798,-1.135213001989465
14.98,-5.155899300155511,2.356935329186115,-14.110447900466568,-0.4825549533119535,0.8904674501337007,-1.25318923885371
15.0,-8.205899300155465,-0.9370646708138679,-9.230447900466572,-0.47619075595448374,0.723430547885876,-1.3709528636254122
15.02,-8.449899300155494,-2.096064670813888,-1.1784479004665513,-0.469058574221541,0.5547364562857078,-1.4887826144788816
15.040000000000001,-1.92289930015545,0.8319353291861091,1.200552099533411,-0.4612470219549605,0.38456437433192936,-1.606953936230375
15.06,4.482100699844523,-1.913064670813867,-2.1544479004665504,-0.4528431152197606,0.21309277737077048,-1.7257359945411774
15.08,7.532100699844477,0.8929353291861162,-5.9364479004665895,-0.4439315764766574,0.040499090170738716,-1.8453887648302651
15.1,5.641100699844515,4.979935329186134,-10.084447900466557,-0.4345941988150125,-0.13304059626439146,-1.9661602243670657
15.120000000000001,-6.13189930015551,-3.560064670813887,-5.082447900466548,-0.42490928206972484,-0.30735176614950044,-2.0882836722511398
15.14,-3.874899300155448,-7.464064670813883,-3.923447900466556,-0.414951148300637,-0.4822616811239395,-2.2119751984657436
15.16,-0.031899300155487254,-2.1570646708138668,-6.363447900466554,-0.404789738343606,-0.6575995456576285,-2.3374313210637214
15.18,-1.7398993001554572,2.356935329186115,-7.827447900466552,-0.39449028659243895,-0.8331966384864193,-2.4648268093100207
15.200000000000001,-6.375899300155538,0.28293532918613096,-9.77944790046655,-0.3841130690000638,-1.0088864144927825,-2.594312709255335
15.22,-3.9469766837472844,1.06960539570508,-10.495359319535629,-0.373713218773873,-1.184504583671652,-2.7260145865623477
15.24,-1.92289930015545,3.5159353291861066,-8.315447900466552,-0.3633406044022791,-1.3598891751786315,-2.860031000114652
15.26,-0.45889930015550817,-1.6080646708138886,-7.095447900466581,-0.35303976532367826,-1.5348805940884107,-2.9964322195794493
15.280000000000001,-0.7028993001555364,-1.8520646708138884,-3.191447900466585,-0.34284990169052815,-1.7093216766943304,-3.1352592004856485
15.3,1.3101006998444973,-2.340064670813888,-0.5074479004665591,-0.3328049156555685,-1.883057747761295,-3.276522830649045
15.32,0.36149449228005026,-0.1041868822574625,-2.302776707449116,-0.322933501673665,-2.0559366809104165,-3.4202034608100056
15.34,-7.595899300155452,-4.048064670813886,-5.326447900466576,-0.31325928228992944,-2.227808961810433,-3.566250729302753
15.36,-9.181899300155465,-3.4990646708138797,-6.912447900466589,-0.3038009842508909,-2.3985277530995375,-3.7145836853736984
15.38,-3.685117701327405,-0.5749438003662607,-6.5764148640475595,-0.2945726485821439,-2.56794895964867,-3.8650912093023253
15.4,5.55187280233898,-1.0079397768719238,-6.237369502367143,-0.2855838687091707,-2.7359312927018045,-4.017632721128125
15.42,5.129349263063531,-3.403094843227803,-7.643177067133033,-0.2768400528846299,-2.902336331453121,-4.172039164488881
15.44,-7.7788993001554445,-2.340064670813888,-10.938447900466599,-0.2683427094730405,-3.067028580441397,-4.328114247901961
15.46,-5.094899300155475,-3.8650646708138936,-6.851447900466553,-0.26008975400640016,-3.22987552056272,-4.485635922441352
15.48,-1.4348993001555073,-4.292064670813886,-7.888447900466588,-0.2520758353047122,-3.390747650757917,-4.644358072047986
15.5,1.8032637092489807,-5.866224806655148,-11.95189565386264,-0.24429267633171786,-3.549518516939766,-4.804012390679465
15.52,-1.6788993001555355,-2.3022348111797024,-10.784481928539744,-0.23672942530321445,-3.70606472472508,-4.964310419013226
15.540000000000001,-3.9358993001554836,-3.560064670813887,-12.280447900466584,-0.2293730132734175,-3.8602659330354996,-5.124945712342297
15.56,-0.7028993001555364,-7.647064670813876,-10.084447900466557,-0.2222085146691646,-4.012004826430163,-5.285596110865647
15.58,-0.9468993001554509,-5.268064670813885,-9.77944790046655,-0.21521950681284316,-4.161167064838274,-5.445926084033257
15.6,-5.9932286515125295,-4.618797878400599,-11.465714692879871,-0.2083884240511303,-4.307641210126114,-5.6055891217581255
15.620000000000001,-2.887916331785292,-5.863668077139856,-9.036464932096399,-0.20169690209784913,-4.451318629939499,-5.764230146608707
15.64,-5.399560787393664,-6.960696191347247,-6.988748677380834,-0.19512610863531116,-4.592093380641069,-5.921487922134846
15.66,4.116100699844537,-3.01106467081388,-10.75544790046655,-0.18865705721635,-4.729862072676219,-6.07699743311259
15.68,2.5301006998445246,-1.4250646708138675,-14.171447900466546,-0.18227090301839444,-4.864523723078028,-6.230392213649955
15.700000000000001,-1.6788993001555355,-3.560064670813887,-13.927447900466575,-0.175949220270334,-4.995979600842318,-6.381306598889532
15.72,-6.314899300155503,-7.952064670813883,-13.195447900466547,-0.16967426117712284,-5.124133071198211,-6.529377876092195
15.74,-6.401305269162609,-7.225899757861701,-11.195215070927542,-0.16342919482584614,-5.248889444156471,-6.674248312027426
15.76,-3.9358993001554836,-5.9390646708138775,-20.027447900466598,-0.15719832319471178,-5.370155831661173,-6.815567036083125
15.780000000000001,-1.2518993001555145,3.5769353291861137,-14.415447900466575,-0.15096727157699377,-5.487841017123866,-6.952991761897062
15.8,0.5781006998445264,-4.597064670813893,-12.402447900466598,-0.14472315276064993,-5.601855341261758,-7.086190334246468
15.82,3.6891006998445164,-9.90406467081388,-3.2524479004665636,-0.1384547069753574,-5.712110608023845,-7.214842092419344
15.84,-0.7875943655284248,-4.547041755026573,-12.415388853650285,-0.13215242135158062,-5.818520013035135,-7.338639045878885
15.860000000000001,-1.6178993001555,-3.01106467081388,-21.67444790046659,-0.12580863255418664,-5.920998094843405,-7.457286861464761
15.88,-0.9468993001554509,-7.403064670813876,-18.80744790046657,-0.11941761456288223,-6.019460707567802,-7.570505662966147
15.9,-4.606899300155533,-11.795064670813872,-14.903447900466574,-0.11297565128074431,-6.113825012780993,-7.678030644930038
15.92,-6.802899300155445,-10.14806467081388,-9.840447900466586,-0.10648109187031626,-6.204009488189935,-7.779612505225954
15.94,-5.84785598126178,-4.421673578955608,-8.424919965333837,-0.0999343861268608,-6.28993395093245,-7.875017705707095
15.96,-0.4407374552218668,-4.92537959890131,-10.572175624057486,-0.09333809807506228,-6.371519594609743,-7.96402857544682
15.98,6.922100699844464,-6.244064670813884,-11.975447900466577,-0.08669689818317163,-6.448689041312456,-8.046443274223288
16.0,3.6891006998445164,-1.3640646708138888,-14.171447900466546,-0.08001753716762992,-6.521366411665107,-8.122075634498309
16.02,-2.4108993001555064,-4.536064670813886,-15.391447900466574,-0.07330880559647407,-6.589477416306693,-8.190754899112093
16.04,-4.545899300155497,-11.12406467081388,-14.842447900466595,-0.06658148219407553,-6.652949471180461,-8.252325370835358
16.06,-4.006093548454339,-9.278417219279604,-10.610344806359434,-0.05984827055967931,-6.7117118371126985,-8.306645989780073
16.080000000000002,-5.094899300155475,-6.732064670813884,-10.75544790046655,-0.053123721057543954,-6.765695782364331,-8.353589855531306
16.1,-4.179899300155512,-5.695064670813878,-13.683447900466547,-0.04642413364174067,-6.814834766127536,-8.393043712001724
16.12,-0.21489930015547998,-6.0610646708138916,-13.866447900466596,-0.039767438501837435,-6.8590646415305985,-8.424907413513372
16.14,-0.031899300155487254,-6.183064670813877,-17.343447900466572,-0.033173053698464405,-6.8983238777537625,-8.449093390178238
16.16,0.8130263196789755,-6.982391530317754,-11.274855338483121,-0.02666172122860853,-6.932553801338738,-8.465526129862479
16.18,0.9441006998445118,-5.756064670813885,-8.07144790046658,-0.02025532428963202,-6.961698856452612,-8.474141693657867
16.2,-3.2038993001555127,-7.708064670813883,-7.827447900466552,-0.013976688468670648,-6.985706883124483,-8.47488728185044
16.22,-3.569899300155498,-7.464064670813883,-7.15644790046656,-0.007849368423259041,-7.004529411706951,-8.467720866873282
16.240000000000002,-4.7898993001555255,-6.305064670813891,-11.426447900466599,-0.0018974201533256616,-7.018121971205942,-8.452610907484297
16.26,-4.057899300155441,-6.9150646708138765,-9.352447900466586,0.0038548418465010094,-7.026444408734421,-8.429536154143367
16.28,-4.71443998752995,-5.760171202052811,-11.261242869168562,0.00938310281626556,-7.029461217150902,-8.398485550103985
16.3,0.3341006998444982,-6.0000646708138845,-11.426447900466599,0.014663319931019863,-7.0271418677781075,-8.359458227250412
16.32,2.469100699844489,-6.0000646708138845,-13.683447900466547,0.019672004754102888,-7.019461144750187,-8.312463590921723
16.34,0.7611006998445191,-7.891064670813876,-14.171447900466546,0.024386510182417657,-7.0063994769132165,-8.257521484065215
16.36,-2.6548993001555345,-9.416064670813881,-14.964447900466553,0.028785315261563277,-6.987943262402879,-8.19466241812791
16.38,-1.92289930015545,-7.220064670813883,-14.171447900466546,0.03284830195742735,-6.964085180351365,-8.123927856284425
16.4,-2.6548993001555345,-8.928064670813882,-11.731447900466549,0.03655701967059924,-6.934824484033039,-8.045370533973554
16.42,-2.898899300155449,-6.0000646708138845,-15.635447900466545,0.03989493484093286,-6.900167270347085,-7.959054802023781
16.44,-0.9468993001554509,-9.355064670813874,-13.195447900466547,0.04284766368310264,-6.860126721663836,-7.865056978403559
16.46,2.89610069984451,-6.793064670813891,-12.951447900466576,0.045403185999165846,-6.814723317335517,-7.763465695460983
16.48,-1.9582272622432526,-5.259680784561668,-14.822904772503131,0.04755203772056187,-6.763985013338994,-7.654382230377386
16.5,-5.826899300155446,-7.952064670813883,-13.744447900466582,0.04928747999074551,-6.70794738952282,-7.5379208075667705
16.52,-1.4348993001555073,-5.512064670813885,-13.012447900466555,0.05060564341524614,-6.646653764711425,-7.414208862954855
16.54,0.2731006998444627,-4.109064670813893,-12.463447900466576,0.051505647020891124,-6.580155280357594,-7.283387261466354
16.56,-2.6967418423819147,-6.615460891826739,-11.331533786524899,0.051989691741552886,-6.508510953485757,-7.145610460584043
16.580000000000002,-4.188086503352869,-7.368105160689755,-9.721176968199035,0.0520631279009249,-6.43178769935753,-7.001046614301995
16.6,-0.7638993001554581,-4.048064670813886,-6.058447900466547,0.051734495782031605,-6.350060323685632,-6.849877612836936
16.62,-3.3868993001555054,-9.355064670813874,-15.086447900466567,0.05101553815677012,-6.263411483546253,-6.692299053753646
16.64,0.2731006998444627,-3.560064670813887,-16.062447900466566,0.04992118331745982,-6.1719316156854,-6.528520139573553
16.66,3.0181006998444673,-5.451064670813878,-14.110447900466568,0.048469496664136295,-6.0757188307769185,-6.358763495942527
16.68,-2.9029511558617616,-7.497833661449066,-5.875447900466554,0.04668159868749831,-5.974878772225178,-6.183264904159921
16.7,-6.802899300155445,-11.61206467081388,-5.875447900466554,0.04458154771053388,-5.86952443813866,-6.0022729430673785
16.72,4.360100699844452,-1.8520646708138884,-17.770447900466593,0.042196186940123274,-5.7597759652162885,-5.8160485372362185
16.740000000000002,3.20110069984446,-1.8520646708138884,-16.306447900466594,0.03955495656379497,-5.645760373855332,-5.624864409606601
16.76,-2.4108993001555064,-8.684064670813882,-11.975447900466577,0.03668967241425065,-5.527611274839835,-5.429004437032608
16.78,-7.180030687016461,-9.300504973211428,-7.6999935209038375,0.03363427367682312,-5.405468538815432,-5.228762908055352
16.8,-5.596043950229696,-4.990443951817205,-6.7751232886825825,0.03042454372624599,-5.2794779299168155,-5.0244436847342975
16.82,-3.3868993001555054,-6.732064670813884,-11.060447900466556,0.027097809588161048,-5.149790704999409,-4.816359273605742
16.84,3.9331006998445446,-3.9870646708138793,-13.622447900466568,0.02369262533486941,-5.016563180805118,-4.604829813068998
16.86,3.20110069984446,-1.6080646708138886,-12.707447900466548,0.02024844291870724,-4.879956272937418,-4.390181985258045
16.88,-2.633899404889096,-6.238819488576418,-10.864919517559441,0.01680527214329891,-4.740135011847325,-4.1727478608744315
16.9,-3.038842656268554,-7.735679097541482,-8.193605379586241,0.013403331329563995,-4.597268041517733,-3.9528636868308653
16.92,-1.3738993001554718,-3.377064670813894,-10.694447900466571,0.010082691852317558,-4.451527106301306,-3.7308686290429933
16.94,-3.3868993001555054,-2.4010646708138665,-8.07144790046658,0.006882921742715337,-4.303086531075897,-3.5071034854487926
16.96,-4.42389930015554,-3.25506467081388,-6.851447900466553,0.003842734643109299,-4.152122700022659,-3.281909386475213
16.98,-0.9468993001554509,-6.427064670813877,-6.607447900466582,0.0009996502907980917,-3.9988135396510422,-3.055626501459348
17.0,-0.4727075360231763,-0.8774915713985724,-9.10736286148046,-0.0016103281889475601,-3.8433380116177314,-2.8285927700521887
17.02,-3.494357179811359,-1.022534584853767,-7.873556209922981,-0.003953016103350308,-3.6858756203381744,-2.6011426774700364
17.04,-2.6548993001555345,-0.9370646708138679,-6.546447900466546,-0.005996325126277992,-3.526605939648921,-2.3736060918192776
17.06,-2.471899300155542,-4.048064670813886,-1.910447900466579,-0.007710515068879362,-3.3657081617806286,-2.146307180974704
17.080000000000002,-3.081899300155442,-8.745064670813889,1.9935520995334173,-0.00906841778132994,-3.203360670374617,-1.9195634256977296
17.1,-2.6548993001555345,-7.220064670813883,0.22455209953341182,-0.010045632265227353,-3.0397406375470886,-1.6936847441861982
17.12,-0.23115910614459179,1.5043160405593796,-4.230360314356478,-0.010620691155039927,-2.875023644095869,-1.4689727400536956
17.14,-1.92289930015545,-0.3270646708138827,-4.838447900466576,-0.010775199889355491,-2.7093833225615165,-1.245720080454635
17.16,-3.6918993001554554,-3.0720646708138872,-7.095447900466581,-0.010493950859773532,-2.542991024402481,-1.0242100045633213
17.18,-0.21489930015547998,-3.560064670813887,-6.607447900466582,-0.009765015432508739,-2.376015513551935,-0.8047159565476716
17.2,1.6761006998444827,-1.120064670813889,-6.851447900466553,-0.008579817054611,-2.2086226883179054,-0.5875013328660748
17.22,0.39422583669586714,-2.4893323520049315,-5.307394583190575,-0.006933188794164685,-2.0409753325682303,-0.37281933144623336
17.240000000000002,0.2731006998444627,-1.8520646708138884,-4.838447900466576,-0.0048234184058966525,-1.873232896339648,-0.1609128895803531
17.26,-4.057899300155441,-2.340064670813888,-6.119447900466582,-0.002252282986289371,-1.705551305648596,0.04798530254013267
17.28,-2.8378993001555273,-0.6320646708138895,-5.143447900466583,0.0007749264077712148,-1.5380828010983354,0.2536527254149421
17.3,1.7371006998445182,0.6489353291861164,-5.44844790046659,0.0042493914278618,-1.3709758047072533,0.45587690342941345
17.32,3.20110069984446,-2.5840646708138877,-3.9844479004665914,0.008158766549489244,-1.2043748141587485,0.6544552398038159
17.34,-5.351832625070503,-0.9858785362008327,-3.961570011844311,0.012487195155366004,-1.0384203232623257,0.8491948249512964
17.36,-3.874899300155448,-0.8760646708138893,-3.3744479004665777,0.017215344694013056,-0.8732487667957902,1.0399122292833045
17.38,-1.4348993001555073,-1.3640646708138888,-3.8624479004665773,0.022320465073256315,-0.7089924873041595,1.2264332909539837
17.400000000000002,-3.081899300155442,-1.059064670813882,-3.9844479004665914,0.027776475204313686,-0.5457797211140041,1.408592908674838
17.42,-2.8378993001555273,1.3199353291861087,-3.9844479004665914,0.033554082313395565,-0.38373460079113686,1.5862348494958791
17.44,-3.6857066592422836,0.5742568050804118,-3.369641764496756,0.03962093744913146,-0.22297717135623474,1.7592115811482647
17.46,-0.7028993001555364,1.5639353291861084,-3.191447900466585,0.04594182914379045,-0.06362341755875756,1.9273841380071417
17.48,2.89610069984451,-0.3270646708138827,-2.215447900466586,0.052478915740680615,0.09421470082851702,2.0906220289406123
17.5,-0.7638993001554581,-2.1570646708138668,-1.7274479004665864,0.059191995672702405,0.2504292094597327,2.2488031943947435
17.52,-6.619899300155453,-1.3030646708138818,-3.8624479004665773,0.06603881440416641,0.40491608021442005,2.401814019214518
17.54,-5.643899300155454,1.25893532918613,-12.951447900466576,0.07297540703287712,0.5575751973738201,2.549549406976908
17.56,4.848100699844508,2.478935329186129,-3.1304479004665495,0.07995647600960568,0.7083103338738796,2.691912920665668
17.580000000000002,-0.27589930015551545,-2.5840646708138877,3.9455520995334155,0.0869358030612045,0.8570291414540532,2.828816992582059
17.6,-8.754899300155444,-4.048064670813886,-3.191447900466585,0.09386669323380498,1.0036431576454896,2.96018320312276
17.62,-5.072245674939716,3.3490542548204045,-2.236358939127287,0.10070244800292466,1.148067831830758,3.0859426244600114
17.64,1.2491006998444618,7.846935329186124,-8.07144790046658,0.10739686388622605,1.2902225716228986,3.206036222755025
17.66,-0.5641071653262499,1.8014240932274248,-4.515627675745601,0.11390475201131461,1.430030809442688,3.3204153114970474
17.68,-3.1428993001554772,-3.8650646708138936,2.9085520995334377,0.1201824722281139,1.5674200882930174,3.429042047526121
17.7,-4.7898993001555255,2.051935329186108,2.420552099533438,0.1261884735459609,1.7023221661416157,3.531889959230901
17.72,-1.3738993001554718,1.8689353291861153,1.6885520995334105,0.13188383172127718,1.8346731394084865,3.6289444939400113
17.740000000000002,0.8608464055961913,-2.093809629738199,-1.6541932328045812,0.137232774316948,1.9644135864251764,3.7202035702197365
17.76,2.165907507974652,1.8406466466091453,-3.497014213464407,0.14220318285797237,2.0914887309167836,3.8056781214377264
17.78,-0.8858993001555291,4.003935329186106,-1.4224479004665795,0.1467670610985776,2.2158486241224664,3.885392618767581
17.8,0.09010069984447,2.5399353291861075,-1.7274479004665864,0.1509009587179193,2.337448342690642,3.959385563313236
17.82,1.49310069984449,-1.059064670813882,-0.080447900466595,0.15458634126512677,2.4562481982715676,4.027709937394312
17.84,-1.5645296585535593,3.6954202202615347,-3.167982405034192,0.15780989939699033,2.5722139540163105,4.090433604487314
17.86,-5.991443792700741,4.51549617574633,0.5110965920786357,0.16056379276823018,2.6853170428842716,4.147639646552098
17.88,-1.92289930015545,-0.8150646708138822,1.6275520995334318,0.16284582593391098,2.7955347823915755,4.1994266269197595
17.900000000000002,2.652100699844482,3.2109353291861282,3.8235520995334014,0.16465955490241327,2.9028505801025064,4.24590876670124
17.92,0.2731006998444627,6.626935329186125,-4.167447900466584,0.16601432330924573,3.00725412394162,4.287216023008585
17.94,-4.555106847324877,5.020448536732759,-1.854281862730128,0.16692522708247054,3.108741551328947,4.323494058428226
17.96,1.3799713617724727,1.5236714050279714,2.5595602254863263,0.16741300686591176,3.207315591330115,4.354904092900032
17.98,5.641100699844515,0.28293532918613096,4.372552099533436,0.16750386861782832,3.3029856747860427,4.381622630684273
18.0,-3.1428993001554772,3.088935329186114,3.3965520995334373,0.1672292343005794,3.3957680086328623,4.403841056179155
18.02,-7.290899300155502,2.234935329186129,2.9085520995334377,0.1666254263121452,3.4856856115532104,4.421765093762597
18.04,-3.32589930015547,5.772935329186112,3.152552099533409,0.16573329135339224,3.572768308107897,4.435614129494312
18.06,0.9767484787441342,4.6489695290854085,2.672188646732206,0.16459777104886456,3.657052677875155,4.445620396438855
18.080000000000002,-1.1032015196124778,5.198439581416219,-0.16627304047944658,0.16326742681166445,3.7385819556948823,4.452028029834229
18.1,-0.9468993001554509,6.1999353291861325,-3.740447900466563,0.1617939253522311,3.8174058794700754,4.455092002620052
18.12,-2.166899300155478,4.7969353291861125,-3.8624479004665773,0.16023149018325336,3.8935804831957688,4.455076955403157
18.14,-4.545899300155497,1.3199353291861087,-2.032447900466593,0.15863632427671828,3.9671678347023,4.452255937162573
18.16,-1.5554897684864741,2.657001968344457,-0.29359551754931534,0.1570660093025684,4.038235719593525,4.446909073404247
18.18,1.164628883255315,3.9465073210084114,-0.2793125324759346,0.1555788868471479,4.1068572744945495,4.439322177267465
18.2,1.7371006998445182,5.894935329186126,-1.7274479004665864,0.15423342643749255,4.173110573536583,4.429785317180246
18.22,-0.6418993001555009,3.5159353291861066,-2.032447900466593,0.1530875846088849,4.237078172039663,4.418591353005855
18.240000000000002,-1.6788993001555355,2.2959353291861078,-0.5074479004665591,0.15219815941679188,4.2988466111891075,4.406034451500921
18.26,-0.7028993001555364,4.064935329186113,0.46855209953344,0.15162014591533962,4.358505887624588,4.392408591002354
18.28,-1.598022086461088,2.613754691641403,0.8130904702539077,0.15140609962263343,4.4161488921517815,4.3780060642901715
18.3,-6.802899300155445,2.5399353291861075,-1.5444479004665936,0.15160551611617443,4.4718708218095555,4.363115987671575
18.32,-2.471899300155542,5.528935329186112,0.6515520995334327,0.15226423525857868,4.525768569091047,4.348022823801486
18.34,0.21210069984454094,7.23693532918611,0.40755209953340454,0.15342387799811244,4.577940091394138,4.3330049256248815
18.36,-1.6178993001555,6.1999353291861325,1.8715520995334032,0.15512132223033284,4.62848376314504,4.318333108862042
18.38,-3.8138993001555264,1.075935329186109,1.6275520995334318,0.157388222304697,4.67749771297447,4.304269260554745
18.400000000000002,1.0770782218490758,7.124409533655584,-0.4199829038519057,0.16025057515247712,4.725079149063074,4.291064991523692
18.42,1.0051006998445473,4.552935329186113,-0.93444790046658,0.16372833501435904,4.771323676939508,4.278960341306442
18.44,-1.4958993001555427,4.735935329186134,-2.7034479004665855,0.16783507819367235,4.816324614978209,4.268182545050481
18.46,-2.898899300155449,4.674935329186127,1.200552099533411,0.172577719104138,4.860172313418681,4.25894487242277
18.48,-4.7898993001555255,5.528935329186112,1.5055520995334177,0.17795627915114443,4.902953483167068,4.251445548462112
18.5,-1.049445678392372,1.8730806367356334,-8.308756760948265,0.18396371026032735,4.944750541084016,4.245866765521663
18.52,4.360100699844452,8.39593532918613,-4.655447900466584,0.19058577447694908,4.985640978799358,4.242373794377555
18.54,0.9441006998445118,8.88393532918613,-1.9714479004665577,0.1978009799772416,5.025696762246186,4.241114201121092
18.56,-1.2518993001555145,2.6009353291861146,7.544552099533405,0.20558057296446391,5.0649837692666,4.2422171740031445
18.580000000000002,-1.6788993001555355,-6.732064670813884,5.165552099533443,0.21388858521992624,5.103561273160013,4.245792961018912
18.6,1.49310069984449,4.003935329186106,0.2855520995334473,0.2226819384665012,5.141481480731461,4.2519324162035685
18.62,-4.545899300155497,16.02093532918613,-7.583447900466581,0.23191060821463957,5.178789133122026,4.260706652038502
18.64,-7.717899300155523,6.748935329186111,-3.4354479004665563,0.24151785061110298,5.215521175722811,4.272166796914675
18.66,-6.802899300155445,-5.024064670813885,5.104552099533407,0.2514404957213138,5.251706501042166,4.286343858186068
18.68,-0.3978993001554727,-0.08306467081388291,8.703552099533454,0.261609309313674,5.287365767493959,4.3032486911309675
18.7,0.5781006998445264,9.432935329186108,0.041552099533419096,0.27194942226346575,5.322511297479953,4.322872072591606
18.72,3.3345894890812904,3.9580050397447457,-3.8850524663045047,0.2823808227601467,5.357147057642833,4.345184877360952
18.740000000000002,6.617100699844514,5.528935329186112,-4.9604479004665905,0.2928189032126478,5.391268721859006,4.370138356699709
18.76,-1.3738993001554718,2.5399353291861075,-2.886447900466578,0.3031750526127391,5.424863814884043,4.397664520377614
18.78,-3.3479944039750356,1.7779122581786935,-0.31229012041016924,0.3133572864964807,5.457911932975728,4.427676624073371
18.8,-2.4561443332683046,7.016769766272638,-0.4323088276208968,0.32327090960192606,5.490385037002358,4.460069762020051
18.82,-2.898899300155449,7.846935329186124,-4.472447900466591,0.3328192091564691,5.522247812534877,4.494721561488482
18.84,-6.009899300155553,3.5159353291861066,2.1155520995334314,0.341904178005106,5.5534580900695065,4.531492972482461
18.86,-3.1428993001554772,2.7839353291861073,0.46855209953344,0.35042726617652814,5.583967317488227,4.570229143444599
18.88,-1.7387999707339232,7.77529995617688,1.353358889139571,0.3582901574933404,5.613721076561901,4.610760371734717
18.900000000000002,1.8110125558341625,7.692040388154313,-3.477468229454255,0.3653955651147431,5.642659635380297,4.652903116140865
18.92,1.0051006998445473,5.2239353291861335,-2.5204479004665927,0.3716480371427442,5.670718528610945,4.696461057831739
18.94,0.3341006998444982,6.687935329186132,5.592552099533407,0.37695476148639684,5.697829157661461,4.741226195647805
18.96,3.445100699844488,4.979935329186134,7.727552099533455,0.3812263587062811,5.723919403579478,4.786979960937828
18.98,0.21210069984454094,3.027935329186107,6.507552099533427,0.3843776525450333,5.748914246746775,4.833494336549885
19.0,-4.3140758555242975,2.680075612635612,3.5094819578086702,0.38632840979366134,5.7727363885419685,4.880532965336027
19.02,-4.756156601167227,6.537862987136069,1.9413778296345954,0.3870040434085806,5.795306870665188,4.927852236584507
19.04,0.7001006998444836,7.907935329186131,1.1395520995334323,0.38633627459729436,5.8165456875671335,4.97520234361656
19.06,-0.8858993001555291,7.175935329186132,0.46855209953344,0.38426375018396647,5.836372386721932,5.0223283107695655
19.080000000000002,-0.1538993001554445,6.382935329186125,0.46855209953344,0.3807326109332178,5.8547066511055466,5.0689709918081025
19.1,-0.21489930015547998,5.711935329186133,-0.2634479004665877,0.3756970055484864,5.871468858839137,5.114868044086702
19.12,-2.9314457905200575,4.699295858092457,-2.8073083590402828,0.369119544682148,5.886580616454184,5.159754883798871
19.14,0.47116025796112604,2.8989036288979873,-0.6326121655965782,0.360971689617086,5.8999652639689195,5.203365627713652
19.16,3.0181006998444673,4.186935329186127,3.3965520995334373,0.35123407086862724,5.911548351255751,5.245434026060554
19.18,0.2731006998444627,4.003935329186106,1.200552099533411,0.3398967325594358,5.921258085660474,5.285694389834866
19.2,-2.6548993001555345,6.1999353291861325,-3.191447900466585,0.3269592992833695,5.929025750483335,5.32388251425067
19.22,-0.729706231948478,6.015370010368087,-0.14702477227288524,0.31243106360557865,5.934786093062547,5.359736598929229
19.240000000000002,0.9818274449948069,4.040772006353239,2.8714929053705105,0.29633099409684516,5.938477680342236,5.392998164636417
19.26,-2.8378993001555273,3.8209353291861134,0.40755209953340454,0.27868766524161426,5.940043219376526,5.423412965428309
19.28,-2.2278993001555136,6.504935329186111,0.40755209953340454,0.2595391114331893,5.939429840215856,5.450731893775243
19.3,-1.6178993001555,7.48093532918611,0.7125520995334114,0.23893260777348435,5.936589338715198,5.474711875067073
19.32,-3.3868993001555054,6.260935329186111,0.8955520995334041,0.21692438061130648,5.931478376847705,5.495116747153553
19.34,-1.8292268907957536,4.364680765030812,1.511873261785925,0.19357925052971195,5.9240586383911715,5.51171812002902
19.36,1.3101006998444973,6.1999353291861325,1.9325520995334386,0.16897020981267238,5.914296938690683,5.524296210187909
19.38,2.164100699844539,5.955935329186133,2.6645520995334095,0.14317793556621158,5.902165288426799,5.532640643636238
19.400000000000002,-0.9468993001554509,5.955935329186133,1.8715520995334032,0.11629023914710207,5.887640912494987,5.536551221271493
19.42,-4.850899300155447,3.027935329186107,-0.5684479004665945,0.08840145286890368,5.870706226044528,5.535838640470066
19.44,-2.489140622468798,5.23603450274028,-1.5248875698882423,0.05961175609336687,5.851348770524085,5.530325167149337
19.46,1.4561332080460128,6.855307831422902,1.4756433610900515,0.030026443990475438,5.829561113222472,5.5198452529197155
19.48,-0.1538993001554445,5.2239353291861335,3.701552099533444,-0.0002448573593673564,5.805340714149566,5.50424609175756
19.5,1.5541006998445255,4.979935329186134,3.2135520995334446,-0.031089026126254055,5.7786897642813075,5.483388109887102
19.52,-0.3978993001554727,4.247935329186106,3.701552099533444,-0.06239032679169537,5.749614999507844,5.4571453818872655
19.54,-3.32589930015547,3.027935329186107,1.9325520995334386,-0.09403133488520973,5.718127495144128,5.4254059662211755
19.56,0.5936912705640691,8.960677264669922,-4.287278338845462,-0.125893898639433,5.684242446288743,5.3880721546205415
19.580000000000002,1.066100699844469,7.846935329186124,-1.910447900466579,-0.15786013029421295,5.647978939427314,5.345060631434746
19.6,-1.4348993001555073,3.027935329186107,9.984552099533403,-0.18981341871145335,5.609359720742953,5.296302540165408
19.62,-4.118899300155476,-4.353064670813893,7.544552099533405,-0.22163945418284337,5.568410967118652,5.2417434544242205
19.64,1.6761006998444827,3.454935329186128,5.592552099533407,-0.25322725552531566,5.525162066645423,5.181343250304653
19.66,2.9571006998445455,12.543935329186127,-2.947447900466557,-0.2844701888501194,5.479645415493561,5.115075878391269
19.68,-6.863899300155481,7.48093532918611,-3.2524479004665636,-0.3152669669345964,5.431896236526461,5.04292903704768
19.7,-9.54789930015545,-5.268064670813885,4.616552099533408,-0.34552261774223353,5.381952423027162,4.964903752768018
19.72,-2.8378993001555273,-4.231064670813879,10.28955209953341,-0.37514941040345223,5.3298544100023,4.881013876118722
